time,ax,ay,az
0.003,-0.76,0.06,-0.28
0.015,-0.76,0.06,-0.28
0.018,-0.76,0.06,-0.28
0.019,-0.76,0.06,-0.28
0.067,0.12,-0.1,0.06
0.096,0.12,-0.1,0.06
0.099,0.12,-0.1,0.06
0.138,0.47,0.18,0.09
0.145,0.47,0.18,0.09
0.147,0.47,0.18,0.09
0.176,0.04,-0.03,0.18
0.193,0.04,-0.03,0.18
0.196,0.04,-0.03,0.18
0.199,0.04,-0.03,0.18
0.256,0.05,0.12,0.03
0.259,0.05,0.12,0.03
0.261,0.05,0.12,0.03
0.295,-0.13,-0.27,0.39
0.331,-0.13,-0.27,0.39
0.337,-0.13,-0.27,0.39
0.358,0.22,-0.13,0.09
0.372,0.22,-0.13,0.09
0.374,0.22,-0.13,0.09
0.378,0.22,-0.13,0.09
0.432,-0.56,0.43,0.08
0.437,-0.56,0.43,0.08
0.446,-0.56,0.43,0.08
0.49,0.53,0.48,-0.12
0.493,0.53,0.48,-0.12
0.496,0.53,0.48,-0.12
0.541,-0.29,-0.04,0.24
0.565,-0.29,-0.04,0.24
0.569,-0.29,-0.04,0.24
0.571,-0.29,-0.04,0.24
0.595,-0.04,-0.15,-0.6
0.616,-0.04,-0.15,-0.6
0.624,-0.04,-0.15,-0.6
0.68,0.06,-0.08,-0.33
0.683,0.06,-0.08,-0.33
0.685,0.06,-0.08,-0.33
0.742,-0.51,-0.12,-0.26
0.746,-0.51,-0.12,-0.26
0.748,-0.51,-0.12,-0.26
0.75,-0.51,-0.12,-0.26
0.776,-0.85,-0.14,-0.15
0.813,-0.85,-0.14,-0.15
0.815,-0.85,-0.14,-0.15
0.835,0.37,0.12,0.67
0.861,0.37,0.12,0.67
0.867,0.37,0.12,0.67
0.897,-0.2,0.05,-0.6
0.916,-0.2,0.05,-0.6
0.918,-0.2,0.05,-0.6
0.92,-0.2,0.05,-0.6
0.957,0.43,-0.23,-0.77
0.974,0.43,-0.23,-0.77
0.977,0.43,-0.23,-0.77
1.017,0.18,-0.08,-0.25
1.062,0.18,-0.08,-0.25
1.065,0.18,-0.08,-0.25
1.114,-0.41,0,-0.59
1.118,-0.41,0,-0.59
1.121,-0.41,0,-0.59
1.124,-0.41,0,-0.59
1.135,0.17,-0.09,0.06
1.167,0.17,-0.09,0.06
1.171,0.17,-0.09,0.06
1.213,0.02,0,0.13
1.219,0.02,0,0.13
1.222,0.02,0,0.13
1.27,-0.23,-0.05,0.26
1.273,-0.23,-0.05,0.26
1.275,-0.23,-0.05,0.26
1.281,-0.23,-0.05,0.26
1.331,-0.18,-0.04,-0.36
1.334,-0.18,-0.04,-0.36
1.336,-0.18,-0.04,-0.36
1.376,0.13,0.05,0.05
1.393,0.13,0.05,0.05
1.397,0.13,0.05,0.05
1.437,0.01,-0.19,0.17
1.483,0.01,-0.19,0.17
1.486,0.01,-0.19,0.17
1.488,0.01,-0.19,0.17
1.497,0.36,-0.03,-0.21
1.513,0.36,-0.03,-0.21
1.515,0.36,-0.03,-0.21
1.558,0.47,0.19,-0.01
1.578,0.47,0.19,-0.01
1.581,0.47,0.19,-0.01
1.651,0.01,0.14,0.34
1.655,0.01,0.14,0.34
1.657,0.01,0.14,0.34
1.66,0.01,0.14,0.34
1.708,0.17,0.07,0.56
1.712,0.17,0.07,0.56
1.714,0.17,0.07,0.56
1.763,-0.25,0.13,0.24
1.766,-0.25,0.13,0.24
1.769,-0.25,0.13,0.24
1.798,0.64,0.35,0.02
1.814,0.64,0.35,0.02
1.817,0.64,0.35,0.02
1.819,0.64,0.35,0.02
1.907,-0.87,-0.06,0.05
1.915,-0.87,-0.06,0.05
1.92,-0.87,-0.06,0.05
1.923,-0.17,-0.24,0.03
1.938,-0.17,-0.24,0.03
1.942,-0.17,-0.24,0.03
2.001,0.38,0.08,0.37
2.004,0.38,0.08,0.37
2.005,0.38,0.08,0.37
2.007,0.38,0.08,0.37
2.036,1.69,0.7,0.64
2.081,1.69,0.7,0.64
2.083,1.69,0.7,0.64
2.099,-0.87,0.28,-0.85
2.115,-0.87,0.28,-0.85
2.118,-0.87,0.28,-0.85
2.176,-0.48,0.23,-0.36
2.179,-0.48,0.23,-0.36
2.181,-0.48,0.23,-0.36
2.183,-0.48,0.23,-0.36
2.23,-0.63,0.17,0.18
2.234,-0.63,0.17,0.18
2.238,-0.63,0.17,0.18
2.282,0.19,0.25,0.33
2.324,0.19,0.25,0.33
2.327,0.19,0.25,0.33
2.337,-0.34,0.23,-0.84
2.354,-0.34,0.23,-0.84
2.356,-0.34,0.23,-0.84
2.359,-0.34,0.23,-0.84
2.411,-0.26,1.04,-0.27
2.417,-0.26,1.04,-0.27
2.419,-0.26,1.04,-0.27
2.455,-0.58,2.09,-0.18
2.508,-0.58,2.09,-0.18
2.511,-0.58,2.09,-0.18
2.516,-1.98,3.2,1.15
2.534,-1.98,3.2,1.15
2.537,-1.98,3.2,1.15
2.54,-1.98,3.2,1.15
2.578,-3.94,5.1,1.64
2.658,-3.94,5.1,1.64
2.662,-3.94,5.1,1.64
2.664,-5.77,6.21,-0.17
2.666,-5.77,6.21,-0.17
2.668,-5.77,6.21,-0.17
2.712,-1.3,2.23,-2.31
2.714,-1.3,2.23,-2.31
2.716,-1.3,2.23,-2.31
2.718,-1.3,2.23,-2.31
2.758,-6.5,-0.72,0.73
2.789,-6.5,-0.72,0.73
2.793,-6.5,-0.72,0.73
2.834,-2.4,-0.75,0.29
2.838,-2.4,-0.75,0.29
2.84,-2.4,-0.75,0.29
2.878,-0.94,-0.5,0.8
2.92,-0.94,-0.5,0.8
2.923,-0.94,-0.5,0.8
2.927,-0.94,-0.5,0.8
2.94,2.47,1.48,0.96
2.961,2.47,1.48,0.96
2.968,2.47,1.48,0.96
2.998,4.33,3.24,-0.38
3.016,4.33,3.24,-0.38
3.019,4.33,3.24,-0.38
3.063,9.59,0.83,-2.52
3.074,9.59,0.83,-2.52
3.076,9.59,0.83,-2.52
3.078,9.59,0.83,-2.52
3.119,9.03,-2.64,-2.4
3.137,9.03,-2.64,-2.4
3.141,9.03,-2.64,-2.4
3.178,3.29,3.97,-2.05
3.245,3.29,3.97,-2.05
3.248,3.29,3.97,-2.05
3.251,4.55,-4.05,-5.32
3.258,4.55,-4.05,-5.32
3.26,4.55,-4.05,-5.32
3.263,4.55,-4.05,-5.32
3.298,-1.22,1.7,0.31
3.343,-1.22,1.7,0.31
3.345,-1.22,1.7,0.31
3.36,-0.83,-0.8,-0.6
3.374,-0.83,-0.8,-0.6
3.377,-0.83,-0.8,-0.6
3.418,-1.87,0,0.24
3.468,-1.87,0,0.24
3.472,-1.87,0,0.24
3.475,-1.87,0,0.24
3.485,0.58,0.16,1.29
3.51,0.58,0.16,1.29
3.513,0.58,0.16,1.29
3.555,-2.03,-0.3,-0.07
3.557,-2.03,-0.3,-0.07
3.562,-2.03,-0.3,-0.07
3.597,-1.29,0.19,0.31
3.634,-1.29,0.19,0.31
3.637,-1.29,0.19,0.31
3.64,-1.29,0.19,0.31
3.657,-0.27,-0.18,0.51
3.684,-0.27,-0.18,0.51
3.687,-0.27,-0.18,0.51
3.724,0.39,0.26,-0.27
3.735,0.39,0.26,-0.27
3.739,0.39,0.26,-0.27
3.793,-0.88,0.56,-0.64
3.804,-0.88,0.56,-0.64
3.806,-0.88,0.56,-0.64
3.813,-0.88,0.56,-0.64
3.837,0.37,2.7,-0.04
3.856,0.37,2.7,-0.04
3.858,0.37,2.7,-0.04
3.897,-0.9,5.37,0.83
3.917,-0.9,5.37,0.83
3.921,-0.9,5.37,0.83
3.96,-3.15,6.27,1.03
3.975,-3.15,6.27,1.03
3.977,-3.15,6.27,1.03
3.98,-3.15,6.27,1.03
4.018,-2.56,-1.76,-2.98
4.035,-2.56,-1.76,-2.98
4.038,-2.56,-1.76,-2.98
4.078,-4.46,-2.38,0.75
4.097,-4.46,-2.38,0.75
4.099,-4.46,-2.38,0.75
4.139,-1.71,-3.18,0.09
4.159,-1.71,-3.18,0.09
4.165,-1.71,-3.18,0.09
4.167,-1.71,-3.18,0.09
4.205,1.28,-1.71,0.53
4.227,1.28,-1.71,0.53
4.242,1.28,-1.71,0.53
4.269,3.57,0.74,0.53
4.275,3.57,0.74,0.53
4.277,3.57,0.74,0.53
4.319,3.66,4,-1.27
4.362,3.66,4,-1.27
4.368,3.66,4,-1.27
4.371,3.66,4,-1.27
4.378,4.98,0.63,-1.03
4.398,4.98,0.63,-1.03
4.4,4.98,0.63,-1.03
4.44,4.7,-2.66,-0.93
4.499,4.7,-2.66,-0.93
4.504,4.7,-2.66,-0.93
4.506,-1.51,1.75,-1.18
4.523,-1.51,1.75,-1.18
4.528,-1.51,1.75,-1.18
4.53,-1.51,1.75,-1.18
4.558,2.85,-2.54,-5.03
4.597,2.85,-2.54,-5.03
4.6,2.85,-2.54,-5.03
4.637,-2.82,2.73,0.66
4.639,-2.82,2.73,0.66
4.641,-2.82,2.73,0.66
4.683,-4.05,-0.82,-0.15
4.699,-4.05,-0.82,-0.15
4.702,-4.05,-0.82,-0.15
4.703,-4.05,-0.82,-0.15
4.739,-1.73,0.47,0.55
4.756,-1.73,0.47,0.55
4.758,-1.73,0.47,0.55
4.8,-2.78,0.66,0.88
4.852,-2.78,0.66,0.88
4.854,-2.78,0.66,0.88
4.861,-0.88,0.49,1.07
4.876,-0.88,0.49,1.07
4.878,-0.88,0.49,1.07
4.88,-0.88,0.49,1.07
4.919,-1.91,0.09,0.32
4.949,-1.91,0.09,0.32
4.952,-1.91,0.09,0.32
4.979,0.59,0.08,1.04
5.003,0.59,0.08,1.04
5.005,0.59,0.08,1.04
5.067,-1.34,1.56,-0.64
5.07,-1.34,1.56,-0.64
5.073,-1.34,1.56,-0.64
5.075,-1.34,1.56,-0.64
5.124,-1.33,1.69,-1.06
5.127,-1.33,1.69,-1.06
5.13,-1.33,1.69,-1.06
5.162,-1.31,4.99,-0.12
5.176,-1.31,4.99,-0.12
5.178,-1.31,4.99,-0.12
5.218,-0.96,5.82,1.27
5.244,-0.96,5.82,1.27
5.247,-0.96,5.82,1.27
5.25,-0.96,5.82,1.27
5.3,-5.48,4.09,-0.11
5.304,-5.48,4.09,-0.11
5.306,-5.48,4.09,-0.11
5.367,3.49,2.35,-1.98
5.374,3.49,2.35,-1.98
5.377,3.49,2.35,-1.98
5.399,-1.93,-4.65,-0.21
5.432,-1.93,-4.65,-0.21
5.436,-1.93,-4.65,-0.21
5.438,-1.93,-4.65,-0.21
5.494,1.21,-2.24,0.53
5.496,1.21,-2.24,0.53
5.498,1.21,-2.24,0.53
5.519,5.4,0.36,0.34
5.56,5.4,0.36,0.34
5.564,5.4,0.36,0.34
5.606,4.63,2.44,0.12
5.609,4.63,2.44,0.12
5.611,4.63,2.44,0.12
5.613,4.63,2.44,0.12
5.64,3.17,3.27,-2.29
5.689,3.17,3.27,-2.29
5.692,3.17,3.27,-2.29
5.7,5.25,-0.24,-0.62
5.717,5.25,-0.24,-0.62
5.719,5.25,-0.24,-0.62
5.759,0.89,-0.02,-0.44
5.78,0.89,-0.02,-0.44
5.783,0.89,-0.02,-0.44
5.785,0.89,-0.02,-0.44
5.822,0.72,0.63,1.64
5.841,0.72,0.63,1.64
5.843,0.72,0.63,1.64
5.889,-2.19,0.71,-4.48
5.896,-2.19,0.71,-4.48
5.899,-2.19,0.71,-4.48
5.94,-7,4.07,6.07
5.959,-7,4.07,6.07
5.964,-7,4.07,6.07
5.966,-7,4.07,6.07
6.013,0.07,1.1,3.44
6.016,0.07,1.1,3.44
6.018,0.07,1.1,3.44
6.061,-3.57,-0.11,0.64
6.077,-3.57,-0.11,0.64
6.08,-3.57,-0.11,0.64
6.119,-1.92,0.79,0.53
6.138,-1.92,0.79,0.53
6.141,-1.92,0.79,0.53
6.144,-1.92,0.79,0.53
6.19,-1.74,0.55,0.29
6.198,-1.74,0.55,0.29
6.2,-1.74,0.55,0.29
6.242,-2.89,0.36,0.04
6.286,-2.89,0.36,0.04
6.295,-2.89,0.36,0.04
6.301,-1.41,-0.04,1.11
6.318,-1.41,-0.04,1.11
6.32,-1.41,-0.04,1.11
6.323,-1.41,-0.04,1.11
6.359,-1.38,-0.37,-0.54
6.389,-1.38,-0.37,-0.54
6.392,-1.38,-0.37,-0.54
6.42,0.13,1.46,0.23
6.455,0.13,1.46,0.23
6.464,0.13,1.46,0.23
6.527,-0.03,1.38,-0.23
6.529,-0.03,1.38,-0.23
6.531,-0.03,1.38,-0.23
6.533,-0.03,1.38,-0.23
6.54,-1.21,4.7,0.57
6.584,-1.21,4.7,0.57
6.593,-1.21,4.7,0.57
6.6,-3.22,5.69,1.47
6.625,-3.22,5.69,1.47
6.628,-3.22,5.69,1.47
6.66,-4.07,0.09,0.16
6.711,-4.07,0.09,0.16
6.714,-4.07,0.09,0.16
6.715,-4.07,0.09,0.16
6.724,-2.18,0.32,2.72
6.738,-2.18,0.32,2.72
6.74,-2.18,0.32,2.72
6.782,0.16,-3.01,0.61
6.851,0.16,-3.01,0.61
6.855,0.16,-3.01,0.61
6.859,1.9,-2.04,0.01
6.865,1.9,-2.04,0.01
6.867,1.9,-2.04,0.01
6.869,1.9,-2.04,0.01
6.91,4.25,0.78,-1.97
6.919,4.25,0.78,-1.97
6.921,4.25,0.78,-1.97
6.973,2.8,3.89,-1.2
7.013,2.8,3.89,-1.2
7.017,2.8,3.89,-1.2
7.021,6.74,0.95,-1.36
7.04,6.74,0.95,-1.36
7.043,6.74,0.95,-1.36
7.045,6.74,0.95,-1.36
7.081,5.46,-1.41,-0.15
7.139,5.46,-1.41,-0.15
7.145,5.46,-1.41,-0.15
7.147,-6.02,9.09,16.49
7.168,-6.02,9.09,16.49
7.175,-6.02,9.09,16.49
7.253,4.63,2.48,4.98
7.256,4.63,2.48,4.98
7.258,4.63,2.48,4.98
7.263,4.63,2.48,4.98
7.265,-4.85,1.09,-0.11
7.298,-4.85,1.09,-0.11
7.3,-4.85,1.09,-0.11
7.382,-1.18,2.18,1.74
7.385,-1.18,2.18,1.74
7.388,-1.18,2.18,1.74
7.39,-1.92,0.91,0.88
7.421,-1.92,0.91,0.88
7.432,-1.92,0.91,0.88
7.434,-1.92,0.91,0.88
7.487,-2.33,0.87,0.71
7.49,-2.33,0.87,0.71
7.493,-2.33,0.87,0.71
7.524,-0.1,0.64,1.88
7.527,-0.1,0.64,1.88
7.529,-0.1,0.64,1.88
7.606,-2.16,0.25,-0.15
7.609,-2.16,0.25,-0.15
7.613,-2.16,0.25,-0.15
7.616,-2.16,0.25,-0.15
7.641,-0.29,1.09,0.32
7.646,-0.29,1.09,0.32
7.648,-0.29,1.09,0.32
7.719,-1.12,0.96,-0.35
7.722,-1.12,0.96,-0.35
7.724,-1.12,0.96,-0.35
7.773,-0.79,2.12,1.44
7.784,-0.79,2.12,1.44
7.786,-0.79,2.12,1.44
7.789,-0.79,2.12,1.44
7.816,-1.55,4.68,1.62
7.819,-1.55,4.68,1.62
7.821,-1.55,4.68,1.62
7.894,-2.87,5.13,0.16
7.903,-2.87,5.13,0.16
7.905,-2.87,5.13,0.16
7.943,-4.08,0.29,-0.92
7.946,-4.08,0.29,-0.92
7.948,-4.08,0.29,-0.92
7.951,-4.08,0.29,-0.92
7.981,-5.71,-2.76,1.04
8.04,-5.71,-2.76,1.04
8.043,-5.71,-2.76,1.04
8.045,-1.51,-2.35,0.88
8.06,-1.51,-2.35,0.88
8.062,-1.51,-2.35,0.88
8.103,3.08,-0.87,0.5
8.12,3.08,-0.87,0.5
8.122,3.08,-0.87,0.5
8.124,3.08,-0.87,0.5
8.162,4.8,1.51,0.26
8.19,4.8,1.51,0.26
8.193,4.8,1.51,0.26
8.248,4.18,5.23,-1.78
8.25,4.18,5.23,-1.78
8.252,4.18,5.23,-1.78
8.283,5.68,2.16,-0.16
8.302,5.68,2.16,-0.16
8.306,5.68,2.16,-0.16
8.309,5.68,2.16,-0.16
8.35,1.75,-0.72,-0.73
8.363,1.75,-0.72,-0.73
8.365,1.75,-0.72,-0.73
8.401,-13.69,10.18,19.5
8.42,-13.69,10.18,19.5
8.424,-13.69,10.18,19.5
8.472,7.13,2.54,6.43
8.481,7.13,2.54,6.43
8.483,7.13,2.54,6.43
8.485,7.13,2.54,6.43
8.542,-5.78,1.53,-0.25
8.545,-5.78,1.53,-0.25
8.546,-5.78,1.53,-0.25
8.585,-2.2,1.74,0.64
8.6,-2.2,1.74,0.64
8.602,-2.2,1.74,0.64
8.644,-1.92,0.46,1.19
8.683,-1.92,0.46,1.19
8.686,-1.92,0.46,1.19
8.687,-1.92,0.46,1.19
8.705,-2.08,0.79,0.63
8.723,-2.08,0.79,0.63
8.726,-2.08,0.79,0.63
8.773,-0.24,0.66,1.26
8.779,-0.24,0.66,1.26
8.782,-0.24,0.66,1.26
8.823,-2.18,0.46,0.02
8.853,-2.18,0.46,0.02
8.859,-2.18,0.46,0.02
8.862,-2.18,0.46,0.02
8.895,-1.15,-0.17,0.39
8.902,-1.15,-0.17,0.39
8.904,-1.15,-0.17,0.39
8.942,-1.6,0.62,-0.12
8.977,-1.6,0.62,-0.12
8.979,-1.6,0.62,-0.12
9.002,-0.66,0.6,-0.01
9.023,-0.66,0.6,-0.01
9.026,-0.66,0.6,-0.01
9.027,-0.66,0.6,-0.01
9.079,-0.42,1.92,0.48
9.082,-0.42,1.92,0.48
9.084,-0.42,1.92,0.48
9.154,-2.67,4.11,0.85
9.157,-2.67,4.11,0.85
9.159,-2.67,4.11,0.85
9.182,-3.01,4.72,-0.12
9.204,-3.01,4.72,-0.12
9.208,-3.01,4.72,-0.12
9.21,-3.01,4.72,-0.12
9.257,-2.71,-0.72,-1
9.261,-2.71,-0.72,-1
9.264,-2.71,-0.72,-1
9.312,-6.47,-2.54,1.29
9.348,-6.47,-2.54,1.29
9.351,-6.47,-2.54,1.29
9.362,-1.32,-2.92,0.71
9.393,-1.32,-2.92,0.71
9.396,-1.32,-2.92,0.71
9.398,-1.32,-2.92,0.71
9.431,0.48,-1.48,0.8
9.444,0.48,-1.48,0.8
9.447,0.48,-1.48,0.8
9.49,5,3.07,0.34
9.499,5,3.07,0.34
9.501,5,3.07,0.34
9.543,4.69,1.53,-1.94
9.582,4.69,1.53,-1.94
9.584,4.69,1.53,-1.94
9.586,4.69,1.53,-1.94
9.625,5.44,3.13,-0.34
9.628,5.44,3.13,-0.34
9.629,5.44,3.13,-0.34
9.689,6.27,-2.83,0.18
9.696,6.27,-2.83,0.18
9.699,6.27,-2.83,0.18
9.743,-0.71,0.4,-0.45
9.746,-0.71,0.4,-0.45
9.747,-0.71,0.4,-0.45
9.749,-0.71,0.4,-0.45
9.791,3.05,-1.43,-6.34
9.8,3.05,-1.43,-6.34
9.803,3.05,-1.43,-6.34
9.843,-7.96,1.6,-5.61
9.893,-7.96,1.6,-5.61
9.9,-7.96,1.6,-5.61
9.906,0.08,2.68,3.25
9.95,0.08,2.68,3.25
9.952,0.08,2.68,3.25
9.954,0.08,2.68,3.25
9.965,-1.75,1.04,0.69
9.993,-1.75,1.04,0.69
9.997,-1.75,1.04,0.69
10.045,-4.09,0.85,0.36
10.047,-4.09,0.85,0.36
10.049,-4.09,0.85,0.36
10.093,-1.02,0.56,0.66
10.101,-1.02,0.56,0.66
10.103,-1.02,0.56,0.66
10.104,-1.02,0.56,0.66
10.167,-2.44,0.52,0.11
10.169,-2.44,0.52,0.11
10.171,-2.44,0.52,0.11
10.208,-2.03,-0.11,0.35
10.221,-2.03,-0.11,0.35
10.231,-2.03,-0.11,0.35
10.276,-0.08,0.78,1.15
10.281,-0.08,0.78,1.15
10.283,-0.08,0.78,1.15
10.285,-0.08,0.78,1.15
10.323,-0.76,0.71,-0.35
10.345,-0.76,0.71,-0.35
10.347,-0.76,0.71,-0.35
10.398,-1.04,3.27,-1.3
10.403,-1.04,3.27,-1.3
10.405,-1.04,3.27,-1.3
10.47,-2.19,4.71,1.07
10.474,-2.19,4.71,1.07
10.477,-2.19,4.71,1.07
10.479,-2.19,4.71,1.07
10.512,-1.76,4.21,0.72
10.521,-1.76,4.21,0.72
10.523,-1.76,4.21,0.72
10.601,-5.68,0.22,-1.55
10.606,-5.68,0.22,-1.55
10.607,-5.68,0.22,-1.55
10.624,-2.44,0.23,2.14
10.652,-2.44,0.23,2.14
10.656,-2.44,0.23,2.14
10.659,-2.44,0.23,2.14
10.732,1.02,-2.51,-0.49
10.735,1.02,-2.51,-0.49
10.737,1.02,-2.51,-0.49
10.772,1.34,-1.06,-0.12
10.774,1.34,-1.06,-0.12
10.777,1.34,-1.06,-0.12
10.818,2.98,1.03,0.67
10.822,2.98,1.03,0.67
10.824,2.98,1.03,0.67
10.827,2.98,1.03,0.67
10.911,3.29,3.67,-1.44
10.914,3.29,3.67,-1.44
10.915,3.29,3.67,-1.44
10.926,3.78,1.87,-1.45
10.951,3.78,1.87,-1.45
10.954,3.78,1.87,-1.45
11.01,2.27,-0.09,-0.38
11.016,2.27,-0.09,-0.38
11.018,2.27,-0.09,-0.38
11.02,2.27,-0.09,-0.38
11.089,-6.52,8.12,8.21
11.092,-6.52,8.12,8.21
11.095,-6.52,8.12,8.21
11.106,2.91,0.81,8.91
11.145,2.91,0.81,8.91
11.148,2.91,0.81,8.91
11.2,-6.32,4.41,0.21
11.203,-6.32,4.41,0.21
11.206,-6.32,4.41,0.21
11.207,-6.32,4.41,0.21
11.224,-2.66,1.2,1.4
11.252,-2.66,1.2,1.4
11.254,-2.66,1.2,1.4
11.301,-0.93,0.67,1.55
11.304,-0.93,0.67,1.55
11.305,-0.93,0.67,1.55
11.352,-2.28,1.04,-0.26
11.362,-2.28,1.04,-0.26
11.364,-2.28,1.04,-0.26
11.366,-2.28,1.04,-0.26
11.422,-2.82,0.11,0.16
11.425,-2.82,0.11,0.16
11.427,-2.82,0.11,0.16
11.465,-1.84,0.66,0.43
11.53,-1.84,0.66,0.43
11.534,-1.84,0.66,0.43
11.536,-0.73,0.51,1.27
11.543,-0.73,0.51,1.27
11.545,-0.73,0.51,1.27
11.547,-0.73,0.51,1.27
11.653,-0.91,0.61,0.29
11.656,-0.91,0.61,0.29
11.659,-0.91,0.61,0.29
11.661,-1.44,0.44,-0.35
11.664,-1.44,0.44,-0.35
11.666,-1.44,0.44,-0.35
11.715,0.28,1.15,0.19
11.723,0.28,1.15,0.19
11.725,0.28,1.15,0.19
11.726,0.28,1.15,0.19
11.777,-1.2,2.01,-0.18
11.784,-1.2,2.01,-0.18
11.786,-1.2,2.01,-0.18
11.865,-2.47,4.77,-0.01
11.868,-2.47,4.77,-0.01
11.87,-2.47,4.77,-0.01
11.9,-3.84,6.41,0.76
11.904,-3.84,6.41,0.76
11.905,-3.84,6.41,0.76
11.907,-3.84,6.41,0.76
11.953,-5.73,0.41,-0.37
11.964,-5.73,0.41,-0.37
11.966,-5.73,0.41,-0.37
12.068,1.02,0.33,2.14
12.072,1.02,0.33,2.14
12.074,1.02,0.33,2.14
12.076,-0.32,-2.46,1.15
12.084,-0.32,-2.46,1.15
12.086,-0.32,-2.46,1.15
12.088,-0.32,-2.46,1.15
12.126,2.91,-0.53,0.56
12.153,2.91,-0.53,0.56
12.173,2.91,-0.53,0.56
12.236,3.69,2.67,0.26
12.239,3.69,2.67,0.26
12.242,3.69,2.67,0.26
12.245,6.02,5.57,-0.45
12.264,6.02,5.57,-0.45
12.269,6.02,5.57,-0.45
12.271,6.02,5.57,-0.45
12.308,5.56,-1.55,-1.18
12.367,5.56,-1.55,-1.18
12.37,5.56,-1.55,-1.18
12.372,1.21,1.18,-0.64
12.393,1.21,1.18,-0.64
12.399,1.21,1.18,-0.64
12.431,-6.2,0.65,-2.6
12.444,-6.2,0.65,-2.6
12.447,-6.2,0.65,-2.6
12.448,-6.2,0.65,-2.6
12.485,-3.31,2.32,2.22
12.553,-3.31,2.32,2.22
12.556,-3.31,2.32,2.22
12.558,-0.45,-0.42,2.23
12.563,-0.45,-0.42,2.23
12.564,-0.45,-0.42,2.23
12.605,-5.08,0.85,-0.39
12.646,-5.08,0.85,-0.39
12.648,-5.08,0.85,-0.39
12.65,-5.08,0.85,-0.39
12.749,0.52,0.63,2.01
12.755,0.52,0.63,2.01
12.757,0.52,0.63,2.01
12.759,-3.16,0.71,0.37
12.763,-3.16,0.71,0.37
12.765,-3.16,0.71,0.37
12.786,-0.73,0.48,0.99
12.82,-0.73,0.48,0.99
12.823,-0.73,0.48,0.99
12.825,-0.73,0.48,0.99
12.877,-2.22,0.23,0.45
12.881,-2.22,0.23,0.45
12.884,-2.22,0.23,0.45
12.911,-0.96,0.22,1.3
12.983,-0.96,0.22,1.3
12.987,-0.96,0.22,1.3
12.99,0.34,0.52,0.39
12.992,0.34,0.52,0.39
12.994,0.34,0.52,0.39
12.997,0.34,0.52,0.39
13.058,-0.15,1.36,-0.29
13.062,-0.15,1.36,-0.29
13.065,-0.15,1.36,-0.29
13.104,-0.35,1.68,0.05
13.106,-0.35,1.68,0.05
13.108,-0.35,1.68,0.05
13.156,-2.08,2.68,0.64
13.164,-2.08,2.68,0.64
13.166,-2.08,2.68,0.64
13.167,-2.08,2.68,0.64
13.263,-2.47,4.81,1.55
13.266,-2.47,4.81,1.55
13.268,-2.47,4.81,1.55
13.271,-5.14,2.33,-2.16
13.365,-5.14,2.33,-2.16
13.369,-5.14,2.33,-2.16
13.373,2.77,-0.06,-2.29
13.378,2.77,-0.06,-2.29
13.38,2.77,-0.06,-2.29
13.382,2.77,-0.06,-2.29
13.389,-5.02,-5.39,-0.16
13.405,-5.02,-5.39,-0.16
13.406,-5.02,-5.39,-0.16
13.492,0.57,-3.26,-0.75
13.494,0.57,-3.26,-0.75
13.499,0.57,-3.26,-0.75
13.506,3.06,-1.58,-1.02
13.552,3.06,-1.58,-1.02
13.562,3.06,-1.58,-1.02
13.564,3.06,-1.58,-1.02
13.566,3.56,3.72,-0.84
13.592,3.56,3.72,-0.84
13.594,3.56,3.72,-0.84
13.661,5.07,2.82,-0.88
13.664,5.07,2.82,-0.88
13.666,5.07,2.82,-0.88
13.697,5.61,-1.91,-0.05
13.704,5.61,-1.91,-0.05
13.707,5.61,-1.91,-0.05
13.709,5.61,-1.91,-0.05
13.769,1.04,-0.12,-1.18
13.773,1.04,-0.12,-1.18
13.779,1.04,-0.12,-1.18
13.807,-14.49,4.85,-2.36
13.893,-14.49,4.85,-2.36
13.901,-14.49,4.85,-2.36
13.903,2.37,4.46,2.24
13.905,2.37,4.46,2.24
13.908,2.37,4.46,2.24
13.917,2.37,4.46,2.24
13.953,-3.87,0.1,-0.74
13.956,-3.87,0.1,-0.74
13.961,-3.87,0.1,-0.74
13.992,-2.83,0.44,0.44
14.004,-2.83,0.44,0.44
14.006,-2.83,0.44,0.44
14.063,-1.07,0.26,1.31
14.066,-1.07,0.26,1.31
14.067,-1.07,0.26,1.31
14.069,-1.07,0.26,1.31
14.11,-3.07,0.43,0.06
14.129,-3.07,0.43,0.06
14.132,-3.07,0.43,0.06
14.167,-0.85,0.35,0.52
14.237,-0.85,0.35,0.52
14.24,-0.85,0.35,0.52
14.245,-2.06,0.3,-0.01
14.246,-2.06,0.3,-0.01
14.248,-2.06,0.3,-0.01
14.25,-2.06,0.3,-0.01
14.287,-1.35,0.34,0.39
14.379,-1.35,0.34,0.39
14.382,-1.35,0.34,0.39
14.384,-0.69,0.39,0.3
14.386,-0.69,0.39,0.3
14.388,-0.69,0.39,0.3
14.407,-0.62,0.81,-0.01
14.44,-0.62,0.81,-0.01
14.447,-0.62,0.81,-0.01
14.448,-0.62,0.81,-0.01
14.506,-0.86,3.88,-0.87
14.508,-0.86,3.88,-0.87
14.51,-0.86,3.88,-0.87
14.551,-1.45,3.92,0.81
14.554,-1.45,3.92,0.81
14.56,-1.45,3.92,0.81
14.598,-2.19,5.23,0.63
14.605,-2.19,5.23,0.63
14.607,-2.19,5.23,0.63
14.609,-2.19,5.23,0.63
14.651,-4.18,-0.15,-2.33
14.728,-4.18,-0.15,-2.33
14.736,-4.18,-0.15,-2.33
14.737,-1.7,-0.94,1.66
14.739,-1.7,-0.94,1.66
14.741,-1.7,-0.94,1.66
14.789,0.22,-2.61,1.14
14.793,0.22,-2.61,1.14
14.797,0.22,-2.61,1.14
14.799,0.22,-2.61,1.14
14.894,2.71,-1.09,1.7
14.899,2.71,-1.09,1.7
14.901,2.71,-1.09,1.7
14.903,1.49,1.02,-0.75
14.908,1.49,1.02,-0.75
14.91,1.49,1.02,-0.75
15.007,3.74,3.08,-0.32
15.011,3.74,3.08,-0.32
15.015,3.74,3.08,-0.32
15.016,3.74,3.08,-0.32
15.018,4.16,-0.35,-0.89
15.057,4.16,-0.35,-0.89
15.06,4.16,-0.35,-0.89
15.089,1.92,-0.8,0.22
15.092,1.92,-0.8,0.22
15.094,1.92,-0.8,0.22
15.172,-3.52,6.35,4.04
15.174,-3.52,6.35,4.04
15.176,-3.52,6.35,4.04
15.178,-3.52,6.35,4.04
15.189,3.45,-0.74,4.87
15.217,3.45,-0.74,4.87
15.224,3.45,-0.74,4.87
15.274,-4.36,0.77,-2.53
15.276,-4.36,0.77,-2.53
15.278,-4.36,0.77,-2.53
15.311,-1.57,0.38,0.62
15.363,-1.57,0.38,0.62
15.369,-1.57,0.38,0.62
15.371,-1.57,0.38,0.62
15.373,-1.96,0.77,-0.33
15.405,-1.96,0.77,-0.33
15.408,-1.96,0.77,-0.33
15.447,-1.58,0.15,0.4
15.449,-1.58,0.15,0.4
15.451,-1.58,0.15,0.4
15.498,-1.29,0.33,1.07
15.506,-1.29,0.33,1.07
15.508,-1.29,0.33,1.07
15.509,-1.29,0.33,1.07
15.601,-1.13,0.22,0.9
15.609,-1.13,0.22,0.9
15.615,-1.13,0.22,0.9
15.621,-0.92,0.29,0.08
15.627,-0.92,0.29,0.08
15.63,-0.92,0.29,0.08
15.678,-1.03,-0.12,-0.01
15.747,-1.03,-0.12,-0.01
15.75,-1.03,-0.12,-0.01
15.752,-1.03,-0.12,-0.01
15.753,0.37,0.37,0.07
15.755,0.37,0.37,0.07
15.757,0.37,0.37,0.07
15.811,0.2,1.12,-0.1
15.819,0.2,1.12,-0.1
15.821,0.2,1.12,-0.1
15.856,-0.22,1.82,-0.73
15.866,-0.22,1.82,-0.73
15.868,-0.22,1.82,-0.73
15.87,-0.22,1.82,-0.73
15.908,-0.66,2.7,0.15
15.961,-0.66,2.7,0.15
15.968,-0.66,2.7,0.15
15.971,-2.06,2.91,0.2
16.012,-2.06,2.91,0.2
16.015,-2.06,2.91,0.2
16.057,-3,2.84,-0.51
16.059,-3,2.84,-0.51
16.061,-3,2.84,-0.51
16.063,-3,2.84,-0.51
16.103,2.57,-0.26,-3.12
16.107,2.57,-0.26,-3.12
16.109,2.57,-0.26,-3.12
16.216,-4.43,-5.68,-0.07
16.223,-4.43,-5.68,-0.07
16.224,-4.43,-5.68,-0.07
16.228,-0.34,-3.7,0.88
16.231,-0.34,-3.7,0.88
16.232,-0.34,-3.7,0.88
16.234,-0.34,-3.7,0.88
16.272,3.04,-0.86,0.06
16.318,3.04,-0.86,0.06
16.322,3.04,-0.86,0.06
16.329,5.69,2.8,-0.13
16.347,5.69,2.8,-0.13
16.349,5.69,2.8,-0.13
16.388,5.01,3.26,-2.33
16.46,5.01,3.26,-2.33
16.475,5.01,3.26,-2.33
16.482,5.01,3.26,-2.33
16.488,5.88,-2.47,-0.51
16.492,5.88,-2.47,-0.51
16.494,5.88,-2.47,-0.51
16.526,1.01,0.99,-1.53
16.528,1.01,0.99,-1.53
16.53,1.01,0.99,-1.53
16.6,-4.9,-3.04,-2.91
16.609,-4.9,-3.04,-2.91
16.611,-4.9,-3.04,-2.91
16.613,-4.9,-3.04,-2.91
16.64,-4.31,2.58,0.78
16.649,-4.31,2.58,0.78
16.65,-4.31,2.58,0.78
16.731,-2.06,0.39,1.05
16.734,-2.06,0.39,1.05
16.738,-2.06,0.39,1.05
16.768,-3.58,0.18,-0.56
16.771,-3.58,0.18,-0.56
16.773,-3.58,0.18,-0.56
16.774,-3.58,0.18,-0.56
16.847,-0.19,0.5,0.96
16.852,-0.19,0.5,0.96
16.858,-0.19,0.5,0.96
16.927,-0.93,0.25,-0.13
16.931,-0.93,0.25,-0.13
16.933,-0.93,0.25,-0.13
16.935,-0.4,0.37,0.56
16.962,-0.4,0.37,0.56
16.967,-0.4,0.37,0.56
16.969,-0.4,0.37,0.56
17.032,-1.15,0.07,0.17
17.036,-1.15,0.07,0.17
17.04,-1.15,0.07,0.17
17.089,-0.86,-0.25,0.19
17.091,-0.86,-0.25,0.19
17.094,-0.86,-0.25,0.19
17.131,-0.6,0.26,-0.63
17.134,-0.6,0.26,-0.63
17.135,-0.6,0.26,-0.63
17.137,-0.6,0.26,-0.63
17.195,0.08,0.42,-0.15
17.198,0.08,0.42,-0.15
17.2,0.08,0.42,-0.15
17.229,-0.29,2.81,-0.52
17.297,-0.29,2.81,-0.52
17.3,-0.29,2.81,-0.52
17.303,-0.58,3.28,-0.53
17.35,-0.58,3.28,-0.53
17.354,-0.58,3.28,-0.53
17.358,-0.58,3.28,-0.53
17.359,-2.2,2.57,0.37
17.369,-2.2,2.57,0.37
17.371,-2.2,2.57,0.37
17.411,-1.26,2.49,0.85
17.444,-1.26,2.49,0.85
17.448,-1.26,2.49,0.85
17.47,-3.15,-2.16,-1.08
17.502,-3.15,-2.16,-1.08
17.506,-3.15,-2.16,-1.08
17.508,-3.15,-2.16,-1.08
17.575,-5.92,-5.75,-0.1
17.586,-5.92,-5.75,-0.1
17.593,-5.92,-5.75,-0.1
17.598,1.01,-1.92,1.4
17.612,1.01,-1.92,1.4
17.615,1.01,-1.92,1.4
17.657,3.77,0.72,1.19
17.671,3.77,0.72,1.19
17.673,3.77,0.72,1.19
17.676,3.77,0.72,1.19
17.738,5.48,2.37,0.07
17.743,5.48,2.37,0.07
17.745,5.48,2.37,0.07
17.776,5.12,2.48,-0.98
17.788,5.12,2.48,-0.98
17.79,5.12,2.48,-0.98
17.833,7.71,-1.39,-0.15
17.879,7.71,-1.39,-0.15
17.883,7.71,-1.39,-0.15
17.885,7.71,-1.39,-0.15
17.89,0.48,-1.18,-2.02
17.927,0.48,-1.18,-2.02
17.931,0.48,-1.18,-2.02
17.951,-16.52,8.38,11.51
17.994,-16.52,8.38,11.51
17.998,-16.52,8.38,11.51
18.081,6.06,3.38,-3.19
18.085,6.06,3.38,-3.19
18.087,6.06,3.38,-3.19
18.088,6.06,3.38,-3.19
18.09,-1.44,-0.68,0.57
18.093,-1.44,-0.68,0.57
18.1,-1.44,-0.68,0.57
18.132,-3.16,0.11,-0.91
18.178,-3.16,0.11,-0.91
18.18,-3.16,0.11,-0.91
18.19,0.42,0.5,1.05
18.227,0.42,0.5,1.05
18.233,0.42,0.5,1.05
18.24,0.42,0.5,1.05
18.253,-1.42,0.07,-0.6
18.289,-1.42,0.07,-0.6
18.292,-1.42,0.07,-0.6
18.329,0.02,0.12,0
18.331,0.02,0.12,0
18.332,0.02,0.12,0
18.393,-1.15,-0.19,-0.27
18.398,-1.15,-0.19,-0.27
18.4,-1.15,-0.19,-0.27
18.401,-1.15,-0.19,-0.27
18.453,-1.03,0.24,0.09
18.456,-1.03,0.24,0.09
18.459,-1.03,0.24,0.09
18.529,-0.94,0.3,0.35
18.533,-0.94,0.3,0.35
18.535,-0.94,0.3,0.35
18.573,0.01,0.63,0.01
18.576,0.01,0.63,0.01
18.577,0.01,0.63,0.01
18.579,0.01,0.63,0.01
18.64,0,0.67,-0.41
18.643,0,0.67,-0.41
18.645,0,0.67,-0.41
18.674,-0.15,3.96,-0.2
18.724,-0.15,3.96,-0.2
18.726,-0.15,3.96,-0.2
18.76,-1.11,3.07,-0.01
18.763,-1.11,3.07,-0.01
18.764,-1.11,3.07,-0.01
18.766,-1.11,3.07,-0.01
18.812,-0.14,3.02,0.68
18.818,-0.14,3.02,0.68
18.824,-0.14,3.02,0.68
18.852,-2.86,-0.85,-1.44
18.916,-2.86,-0.85,-1.44
18.918,-2.86,-0.85,-1.44
18.92,-2.11,-0.15,2.68
18.931,-2.11,-0.15,2.68
18.933,-2.11,-0.15,2.68
18.934,-2.11,-0.15,2.68
18.985,-1.57,-1.87,-0.09
18.989,-1.57,-1.87,-0.09
18.991,-1.57,-1.87,-0.09
19.032,2.01,-0.26,2.14
19.087,2.01,-0.26,2.14
19.09,2.01,-0.26,2.14
19.092,5.55,1.68,0.93
19.11,5.55,1.68,0.93
19.113,5.55,1.68,0.93
19.116,5.55,1.68,0.93
19.153,3.94,3.04,-1.34
19.227,3.94,3.04,-1.34
19.229,3.94,3.04,-1.34
19.235,4.94,-0.54,-1.72
19.237,4.94,-0.54,-1.72
19.239,4.94,-0.54,-1.72
19.334,2.66,-1.52,-1.28
19.338,2.66,-1.52,-1.28
19.34,2.66,-1.52,-1.28
19.343,2.66,-1.52,-1.28
19.345,-9.63,8.43,14.06
19.393,-9.63,8.43,14.06
19.395,-9.63,8.43,14.06
19.398,2.64,-0.21,1.26
19.409,2.64,-0.21,1.26
19.413,2.64,-0.21,1.26
19.453,-1.28,-0.27,-0.06
19.503,-1.28,-0.27,-0.06
19.508,-1.28,-0.27,-0.06
19.51,-1.28,-0.27,-0.06
19.512,-2.57,1.62,-0.26
19.529,-2.57,1.62,-0.26
19.531,-2.57,1.62,-0.26
19.632,0.8,0.19,0.65
19.642,0.8,0.19,0.65
19.644,0.8,0.19,0.65
19.646,-1.53,0.5,-0.35
19.655,-1.53,0.5,-0.35
19.658,-1.53,0.5,-0.35
19.66,-1.53,0.5,-0.35
19.701,0.1,0.09,1.22
19.709,0.1,0.09,1.22
19.711,0.1,0.09,1.22
19.762,-0.59,0.14,0.02
19.842,-0.59,0.14,0.02
19.846,-0.59,0.14,0.02
19.854,-0.36,0.01,0.49
19.859,-0.36,0.01,0.49
19.866,-0.36,0.01,0.49
19.87,-0.36,0.01,0.49
19.892,-0.27,0.23,0.27
19.894,-0.27,0.23,0.27
19.896,-0.27,0.23,0.27
19.95,0.03,0.49,-0.21
19.953,0.03,0.49,-0.21
19.955,0.03,0.49,-0.21
20.062,-0.93,0.71,-0.2
20.065,-0.93,0.71,-0.2
20.067,-0.93,0.71,-0.2
20.072,-0.93,0.71,-0.2
20.075,0.07,2.01,-0.39
20.077,0.07,2.01,-0.39
20.079,0.07,2.01,-0.39
20.13,-0.94,2.8,0.15
20.133,-0.94,2.8,0.15
20.135,-0.94,2.8,0.15
20.175,-0.36,3.53,1.19
20.224,-0.36,3.53,1.19
20.228,-0.36,3.53,1.19
20.23,-0.36,3.53,1.19
20.233,-4.44,-0.31,-2.56
20.294,-4.44,-0.31,-2.56
20.298,-4.44,-0.31,-2.56
20.301,5.05,2.5,3.16
20.312,5.05,2.5,3.16
20.314,5.05,2.5,3.16
20.354,-3.85,-4.09,-1.13
20.371,-3.85,-4.09,-1.13
20.375,-3.85,-4.09,-1.13
20.377,-3.85,-4.09,-1.13
20.424,1.42,-2.3,0.03
20.43,1.42,-2.3,0.03
20.433,1.42,-2.3,0.03
20.483,2.29,-0.46,-0.5
20.495,2.29,-0.46,-0.5
20.5,2.29,-0.46,-0.5
20.532,3.93,1.36,-0.79
20.589,3.93,1.36,-0.79
20.591,3.93,1.36,-0.79
20.593,3.93,1.36,-0.79
20.595,6.21,1.35,-0.75
20.612,6.21,1.35,-0.75
20.614,6.21,1.35,-0.75
20.654,6,-1.17,-1.17
20.73,6,-1.17,-1.17
20.735,6,-1.17,-1.17
20.737,3.05,-1.62,-0.26
20.739,3.05,-1.62,-0.26
20.742,3.05,-1.62,-0.26
20.743,3.05,-1.62,-0.26
20.776,-7.31,7.71,11.77
20.857,-7.31,7.71,11.77
20.861,-7.31,7.71,11.77
20.863,5.4,-0.18,1.24
20.865,5.4,-0.18,1.24
20.867,5.4,-0.18,1.24
20.916,-3.24,0.6,-0.7
20.918,-3.24,0.6,-0.7
20.92,-3.24,0.6,-0.7
20.921,-3.24,0.6,-0.7
20.96,-2.53,1.02,-0.16
20.974,-2.53,1.02,-0.16
20.976,-2.53,1.02,-0.16
21.06,-0.58,0.09,0.78
21.065,-0.58,0.09,0.78
21.067,-0.58,0.09,0.78
21.08,-1.8,0.03,-0.09
21.118,-1.8,0.03,-0.09
21.121,-1.8,0.03,-0.09
21.126,-1.8,0.03,-0.09
21.211,1.22,0.48,0.65
21.214,1.22,0.48,0.65
21.215,1.22,0.48,0.65
21.217,-1.05,0.18,-0.06
21.219,-1.05,0.18,-0.06
21.22,-1.05,0.18,-0.06
21.254,-0.77,-0.19,0.17
21.331,-0.77,-0.19,0.17
21.338,-0.77,-0.19,0.17
21.343,-0.77,-0.19,0.17
21.345,-0.9,0.07,-0.18
21.347,-0.9,0.07,-0.18
21.349,-0.9,0.07,-0.18
21.399,-0.37,0.2,-0.45
21.402,-0.37,0.2,-0.45
21.403,-0.37,0.2,-0.45
21.435,-1.03,1.39,-0.32
21.503,-1.03,1.39,-0.32
21.507,-1.03,1.39,-0.32
21.521,-1.03,1.39,-0.32
21.524,-0.38,-0.1,-0.29
21.527,-0.38,-0.1,-0.29
21.529,-0.38,-0.1,-0.29
21.573,0.15,0.02,0.21
21.578,0.15,0.02,0.21
21.58,0.15,0.02,0.21
21.624,0.5,0.2,0.05
21.633,0.5,0.2,0.05
21.635,0.5,0.2,0.05
21.637,0.5,0.2,0.05
21.722,0.18,0.18,0.18
21.726,0.18,0.18,0.18
21.73,0.18,0.18,0.18
21.752,-0.5,-0.22,-1.11
21.755,-0.5,-0.22,-1.11
21.757,-0.5,-0.22,-1.11
21.812,-0.39,-0.23,-0.22
21.824,-0.39,-0.23,-0.22
21.829,-0.39,-0.23,-0.22
21.831,-0.39,-0.23,-0.22
21.871,0.64,0.25,0.5
21.874,0.64,0.25,0.5
21.876,0.64,0.25,0.5
21.958,0.42,0.37,-0.08
21.964,0.42,0.37,-0.08
21.967,0.42,0.37,-0.08
22.016,-0.52,0.08,-0.53
22.019,-0.52,0.08,-0.53
22.021,-0.52,0.08,-0.53
22.022,-0.52,0.08,-0.53
22.036,0.04,-0.02,-0.04
22.075,0.04,-0.02,-0.04
22.08,0.04,-0.02,-0.04
22.097,1.05,0.33,-0.19
22.158,1.05,0.33,-0.19
22.164,1.05,0.33,-0.19
22.17,0.21,0.25,-0.01
22.173,0.21,0.25,-0.01
22.175,0.21,0.25,-0.01
22.176,0.21,0.25,-0.01
22.216,-0.11,-0.02,-0.14
22.277,-0.11,-0.02,-0.14
22.283,-0.11,-0.02,-0.14
22.285,-0.32,-0.15,-0.42
22.294,-0.32,-0.15,-0.42
22.297,-0.32,-0.15,-0.42
22.359,0.73,-0.06,0.35
22.362,0.73,-0.06,0.35
22.364,0.73,-0.06,0.35
22.367,0.73,-0.06,0.35
22.402,-0.15,0.04,0.12
22.413,-0.15,0.04,0.12
22.415,-0.15,0.04,0.12
22.481,-0.79,-0.17,-0.01
22.485,-0.79,-0.17,-0.01
22.487,-0.79,-0.17,-0.01
22.522,0.13,-0.16,0
22.584,0.13,-0.16,0
22.587,0.13,-0.16,0
22.588,0.13,-0.16,0
22.59,0.06,-0.12,0.07
22.593,0.06,-0.12,0.07
22.595,0.06,-0.12,0.07
22.691,-0.06,-0.22,0.32
22.694,-0.06,-0.22,0.32
22.698,-0.06,-0.22,0.32
22.7,0.22,0.03,-0.07
22.761,0.22,0.03,-0.07
22.767,0.22,0.03,-0.07
22.768,0.22,0.03,-0.07
22.77,0.04,0.04,0.07
22.773,0.04,0.04,0.07
22.775,0.04,0.04,0.07
22.82,-0.16,-0.01,-0.18
22.893,-0.16,-0.01,-0.18
22.898,-0.16,-0.01,-0.18
22.901,0.26,0.08,0.03
22.904,0.26,0.08,0.03
22.906,0.26,0.08,0.03
22.908,0.26,0.08,0.03
22.937,-0.14,0.01,-0.18
23.009,-0.14,0.01,-0.18
23.016,-0.14,0.01,-0.18
23.021,0.05,-0.01,0.01
23.025,0.05,-0.01,0.01
23.029,0.05,-0.01,0.01
23.074,-0.73,-0.23,0.27
23.077,-0.73,-0.23,0.27
23.079,-0.73,-0.23,0.27
23.08,-0.73,-0.23,0.27
23.116,0.37,0.01,0.19
23.185,0.37,0.01,0.19
23.189,0.37,0.01,0.19
23.19,-0.07,0.04,-0.12
23.201,-0.07,0.04,-0.12
23.203,-0.07,0.04,-0.12
23.247,0.06,0,0.12
23.256,0.06,0,0.12
23.259,0.06,0,0.12
23.26,0.06,0,0.12
23.295,-0.12,0.05,0.08
23.344,-0.12,0.05,0.08
23.348,-0.12,0.05,0.08
23.357,0.12,-0.23,-0.12
23.396,0.12,-0.23,-0.12
23.405,0.12,-0.23,-0.12
23.481,-0.01,-0.2,0.05
23.486,-0.01,-0.2,0.05
23.488,-0.01,-0.2,0.05
23.49,-0.01,-0.2,0.05
23.494,0.29,-0.13,-0.01
23.496,0.29,-0.13,-0.01
23.498,0.29,-0.13,-0.01
