time,ax,ay,az
0.003,0,0.12,-0.11
0.006,0,0.12,-0.11
0.008,0,0.12,-0.11
0.009,-0.09,0.19,-0.4
0.066,-0.09,0.19,-0.4
0.068,-0.09,0.19,-0.4
0.07,0.13,-0.04,0
0.136,0.13,-0.04,0
0.139,0.13,-0.04,0
0.14,-0.02,0.03,-0.11
0.187,-0.02,0.03,-0.11
0.19,-0.02,0.03,-0.11
0.192,-0.02,0.03,-0.11
0.194,0.06,0.01,-0.07
0.262,0.06,0.01,-0.07
0.266,0.06,0.01,-0.07
0.269,-0.05,-0.02,-0.13
0.311,-0.05,-0.02,-0.13
0.316,-0.05,-0.02,-0.13
0.318,0.01,-0.02,-0.14
0.36,0.01,-0.02,-0.14
0.362,0.01,-0.02,-0.14
0.364,0.01,-0.02,-0.14
0.366,0.05,0.09,-0.12
0.427,0.05,0.09,-0.12
0.43,0.05,0.09,-0.12
0.432,0.04,0.02,-0.1
0.482,0.04,0.02,-0.1
0.484,0.04,0.02,-0.1
0.486,0.1,0.04,-0.11
0.54,0.1,0.04,-0.11
0.542,0.1,0.04,-0.11
0.544,0.1,0.04,-0.11
0.546,-0.08,0.05,-0.13
0.619,-0.08,0.05,-0.13
0.623,-0.08,0.05,-0.13
0.626,0.08,0.03,-0.09
0.701,0.08,0.03,-0.09
0.705,0.08,0.03,-0.09
0.707,-0.05,0.03,-0.14
0.728,-0.05,0.03,-0.14
0.732,-0.05,0.03,-0.14
0.736,-0.05,0.03,-0.14
0.738,0.19,0.07,-0.1
0.78,0.19,0.07,-0.1
0.783,0.19,0.07,-0.1
0.784,0.04,0.01,-0.18
0.844,0.04,0.01,-0.18
0.85,0.04,0.01,-0.18
0.852,-0.02,0.04,-0.08
0.901,-0.02,0.04,-0.08
0.903,-0.02,0.04,-0.08
0.905,-0.02,0.04,-0.08
0.906,0.03,0.08,-0.15
0.961,0.03,0.08,-0.15
0.966,0.03,0.08,-0.15
0.969,-0.04,0,-0.1
1.03,-0.04,0,-0.1
1.037,-0.04,0,-0.1
1.044,-0.01,0.03,-0.06
1.08,-0.01,0.03,-0.06
1.083,-0.01,0.03,-0.06
1.085,-0.01,0.03,-0.06
1.087,0.05,0.04,-0.11
1.142,0.05,0.04,-0.11
1.145,0.05,0.04,-0.11
1.152,-0.02,-0.03,-0.07
1.202,-0.02,-0.03,-0.07
1.205,-0.02,-0.03,-0.07
1.207,-0.05,-0.09,-0.03
1.285,-0.05,-0.09,-0.03
1.287,-0.05,-0.09,-0.03
1.289,-0.05,-0.09,-0.03
1.291,0.09,0.02,-0.08
1.342,0.09,0.02,-0.08
1.348,0.09,0.02,-0.08
1.35,0.04,0.04,-0.07
1.385,0.04,0.04,-0.07
1.388,0.04,0.04,-0.07
1.389,0.01,0.02,-0.15
1.443,0.01,0.02,-0.15
1.445,0.01,0.02,-0.15
1.447,0.01,0.02,-0.15
1.449,-0.01,0.03,-0.1
1.506,-0.01,0.03,-0.1
1.51,-0.01,0.03,-0.1
1.512,0,0.03,-0.1
1.562,0,0.03,-0.1
1.571,0,0.03,-0.1
1.573,0,0.01,-0.11
1.647,0,0.01,-0.11
1.65,0,0.01,-0.11
1.653,0,0.01,-0.11
1.656,-0.09,0.04,-0.14
1.695,-0.09,0.04,-0.14
1.7,-0.09,0.04,-0.14
1.705,0.02,0.02,-0.12
1.762,0.02,0.02,-0.12
1.765,0.02,0.02,-0.12
1.77,-0.02,0.05,-0.1
1.803,-0.02,0.05,-0.1
1.806,-0.02,0.05,-0.1
1.808,-0.02,0.05,-0.1
1.81,0.01,0,-0.11
1.885,0.01,0,-0.11
1.89,0.01,0,-0.11
1.892,-0.01,0.08,-0.11
1.922,-0.01,0.08,-0.11
1.924,-0.01,0.08,-0.11
1.926,-0.07,0.02,-0.1
1.994,-0.07,0.02,-0.1
1.997,-0.07,0.02,-0.1
1.999,-0.07,0.02,-0.1
2.001,-0.09,0.05,-0.13
2.051,-0.09,0.05,-0.13
2.06,-0.09,0.05,-0.13
2.062,-0.17,0.08,-0.07
2.105,-0.17,0.08,-0.07
2.109,-0.17,0.08,-0.07
2.111,-0.01,0,-0.24
2.162,-0.01,0,-0.24
2.165,-0.01,0,-0.24
2.167,-0.01,0,-0.24
2.169,-0.22,-0.02,-0.32
2.244,-0.22,-0.02,-0.32
2.247,-0.22,-0.02,-0.32
2.249,-0.27,0.09,-0.34
2.319,-0.27,0.09,-0.34
2.326,-0.27,0.09,-0.34
2.328,0.24,0.04,-0.31
2.364,0.24,0.04,-0.31
2.369,0.24,0.04,-0.31
2.371,0.24,0.04,-0.31
2.374,0.83,0.13,-0.14
2.402,0.83,0.13,-0.14
2.405,0.83,0.13,-0.14
2.407,0.95,0.6,-0.23
2.462,0.95,0.6,-0.23
2.465,0.95,0.6,-0.23
2.468,1.07,1.02,-1.62
2.521,1.07,1.02,-1.62
2.524,1.07,1.02,-1.62
2.525,1.07,1.02,-1.62
2.527,2.44,3.2,-1.29
2.584,2.44,3.2,-1.29
2.587,2.44,3.2,-1.29
2.593,1.93,-0.38,-1.99
2.646,1.93,-0.38,-1.99
2.65,1.93,-0.38,-1.99
2.652,6.2,-3.75,0.74
2.701,6.2,-3.75,0.74
2.704,6.2,-3.75,0.74
2.706,6.2,-3.75,0.74
2.708,3.46,-1.85,0.88
2.763,3.46,-1.85,0.88
2.766,3.46,-1.85,0.88
2.768,1.02,0.71,1.11
2.822,1.02,0.71,1.11
2.825,1.02,0.71,1.11
2.827,-0.43,2.54,0.85
2.882,-0.43,2.54,0.85
2.885,-0.43,2.54,0.85
2.887,-0.43,2.54,0.85
2.889,-2.8,2.56,1.81
2.945,-2.8,2.56,1.81
2.947,-2.8,2.56,1.81
2.949,-5.43,0.87,0.3
3.005,-5.43,0.87,0.3
3.007,-5.43,0.87,0.3
3.009,-2.93,-2.37,-5.39
3.062,-2.93,-2.37,-5.39
3.064,-2.93,-2.37,-5.39
3.067,-2.93,-2.37,-5.39
3.07,-7.57,-1.21,-2.56
3.123,-7.57,-1.21,-2.56
3.125,-7.57,-1.21,-2.56
3.127,-0.57,-0.71,-0.92
3.185,-0.57,-0.71,-0.92
3.19,-0.57,-0.71,-0.92
3.192,-0.76,-0.08,-1.15
3.249,-0.76,-0.08,-1.15
3.252,-0.76,-0.08,-1.15
3.254,-0.76,-0.08,-1.15
3.255,0.48,-0.03,-0.44
3.302,0.48,-0.03,-0.44
3.305,0.48,-0.03,-0.44
3.308,0,0.01,-0.63
3.364,0,0.01,-0.63
3.368,0,0.01,-0.63
3.37,0.29,0.4,-0.2
3.445,0.29,0.4,-0.2
3.45,0.29,0.4,-0.2
3.453,0.29,0.4,-0.2
3.455,0.24,0.89,0.22
3.501,0.24,0.89,0.22
3.508,0.24,0.89,0.22
3.51,2.51,1.67,-1.26
3.557,2.51,1.67,-1.26
3.564,2.51,1.67,-1.26
3.566,4.92,3.82,0.27
3.603,4.92,3.82,0.27
3.606,4.92,3.82,0.27
3.608,4.92,3.82,0.27
3.61,8.02,12.63,-3.03
3.664,8.02,12.63,-3.03
3.667,8.02,12.63,-3.03
3.67,5.19,3.46,9.6
3.725,5.19,3.46,9.6
3.727,5.19,3.46,9.6
3.73,6.19,-3.46,2.61
3.783,6.19,-3.46,2.61
3.791,6.19,-3.46,2.61
3.8,6.19,-3.46,2.61
3.805,5.77,-6.15,-0.76
3.855,5.77,-6.15,-0.76
3.866,5.77,-6.15,-0.76
3.87,3.57,-3.42,-0.83
3.908,3.57,-3.42,-0.83
3.91,3.57,-3.42,-0.83
3.913,-2.21,3.02,0.62
3.963,-2.21,3.02,0.62
3.968,-2.21,3.02,0.62
3.974,-2.21,3.02,0.62
3.976,-6.44,8,-0.54
4.023,-6.44,8,-0.54
4.026,-6.44,8,-0.54
4.028,-7.53,2.94,-0.88
4.083,-7.53,2.94,-0.88
4.091,-7.53,2.94,-0.88
4.097,26.28,4.35,20.6
4.16,26.28,4.35,20.6
4.168,26.28,4.35,20.6
4.17,26.28,4.35,20.6
4.174,-8.58,1.31,5.99
4.205,-8.58,1.31,5.99
4.208,-8.58,1.31,5.99
4.21,7.17,1.59,1.37
4.265,7.17,1.59,1.37
4.267,7.17,1.59,1.37
4.269,0.13,1.03,-0.43
4.324,0.13,1.03,-0.43
4.326,0.13,1.03,-0.43
4.328,0.13,1.03,-0.43
4.329,2.43,0.29,0.77
4.385,2.43,0.29,0.77
4.388,2.43,0.29,0.77
4.389,0.96,-0.05,0.24
4.468,0.96,-0.05,0.24
4.471,0.96,-0.05,0.24
4.473,1.47,0.54,-0.36
4.505,1.47,0.54,-0.36
4.507,1.47,0.54,-0.36
4.509,1.47,0.54,-0.36
4.511,1.83,1.25,0.07
4.581,1.83,1.25,0.07
4.584,1.83,1.25,0.07
4.586,2.37,3.21,-0.33
4.625,2.37,3.21,-0.33
4.627,2.37,3.21,-0.33
4.629,4.88,6.36,-0.88
4.683,4.88,6.36,-0.88
4.686,4.88,6.36,-0.88
4.692,4.88,6.36,-0.88
4.693,4.96,7.69,-7.45
4.755,4.96,7.69,-7.45
4.758,4.96,7.69,-7.45
4.76,-4.39,-4.43,-6.6
4.805,-4.39,-4.43,-6.6
4.808,-4.39,-4.43,-6.6
4.809,3.62,-8.99,3.53
4.866,3.62,-8.99,3.53
4.87,3.62,-8.99,3.53
4.872,3.62,-8.99,3.53
4.873,-1.14,-5.49,3.14
4.924,-1.14,-5.49,3.14
4.927,-1.14,-5.49,3.14
4.928,-0.98,-0.69,3.14
4.985,-0.98,-0.69,3.14
4.988,-0.98,-0.69,3.14
4.99,-2.35,6.15,5
5.057,-2.35,6.15,5
5.059,-2.35,6.15,5
5.061,-2.35,6.15,5
5.062,-10.91,7.33,-3.74
5.106,-10.91,7.33,-3.74
5.11,-10.91,7.33,-3.74
5.112,-7.96,0.9,-0.77
5.165,-7.96,0.9,-0.77
5.175,-7.96,0.9,-0.77
5.178,8.8,2.71,3.91
5.227,8.8,2.71,3.91
5.23,8.8,2.71,3.91
5.232,8.8,2.71,3.91
5.234,-4.57,6.72,2.37
5.286,-4.57,6.72,2.37
5.295,-4.57,6.72,2.37
5.297,5.6,2.49,1.73
5.356,5.6,2.49,1.73
5.359,5.6,2.49,1.73
5.361,2.34,0.63,0.63
5.406,2.34,0.63,0.63
5.409,2.34,0.63,0.63
5.411,2.34,0.63,0.63
5.413,0.65,0.04,0.21
5.466,0.65,0.04,0.21
5.476,0.65,0.04,0.21
5.482,0.8,0.25,0.42
5.539,0.8,0.25,0.42
5.547,0.8,0.25,0.42
5.55,0.83,1.08,0.75
5.614,0.83,1.08,0.75
5.617,0.83,1.08,0.75
5.618,0.83,1.08,0.75
5.621,1.49,1.16,-0.3
5.664,1.49,1.16,-0.3
5.667,1.49,1.16,-0.3
5.669,2.57,2.99,1.03
5.712,2.57,2.99,1.03
5.716,2.57,2.99,1.03
5.719,3.61,6.04,-1.86
5.775,3.61,6.04,-1.86
5.777,3.61,6.04,-1.86
5.779,3.61,6.04,-1.86
5.781,9.73,5.58,-7.11
5.825,9.73,5.58,-7.11
5.827,9.73,5.58,-7.11
5.829,-0.74,-6.25,-10.12
5.885,-0.74,-6.25,-10.12
5.888,-0.74,-6.25,-10.12
5.891,1.54,-8.22,1.04
5.945,1.54,-8.22,1.04
5.947,1.54,-8.22,1.04
5.949,1.54,-8.22,1.04
5.951,-3.24,-6.11,-3.06
6.006,-3.24,-6.11,-3.06
6.009,-3.24,-6.11,-3.06
6.011,-3.58,-1.44,-0.2
6.073,-3.58,-1.44,-0.2
6.075,-3.58,-1.44,-0.2
6.077,-4.9,6.79,1.87
6.125,-4.9,6.79,1.87
6.127,-4.9,6.79,1.87
6.129,-4.9,6.79,1.87
6.13,-10.13,4.98,-2.75
6.185,-10.13,4.98,-2.75
6.188,-10.13,4.98,-2.75
6.191,-1.78,13.31,-0.51
6.248,-1.78,13.31,-0.51
6.25,-1.78,13.31,-0.51
6.253,1.8,-5.73,5.68
6.306,1.8,-5.73,5.68
6.308,1.8,-5.73,5.68
6.31,1.8,-5.73,5.68
6.312,0.34,-0.05,-1.48
6.373,0.34,-0.05,-1.48
6.378,0.34,-0.05,-1.48
6.379,5.07,1.29,1.36
6.426,5.07,1.29,1.36
6.43,5.07,1.29,1.36
6.432,1.43,1.23,-0.82
6.487,1.43,1.23,-0.82
6.49,1.43,1.23,-0.82
6.496,1.43,1.23,-0.82
6.498,4.11,1.15,0.51
6.545,4.11,1.15,0.51
6.547,4.11,1.15,0.51
6.549,1.91,1.21,0.41
6.606,1.91,1.21,0.41
6.61,1.91,1.21,0.41
6.612,1.67,1.71,-0.36
6.677,1.67,1.71,-0.36
6.679,1.67,1.71,-0.36
6.681,1.67,1.71,-0.36
6.683,3.21,3.77,-0.38
6.75,3.21,3.77,-0.38
6.753,3.21,3.77,-0.38
6.755,6.39,8.08,-1.83
6.796,6.39,8.08,-1.83
6.799,6.39,8.08,-1.83
6.801,11.33,5.2,-5.85
6.848,11.33,5.2,-5.85
6.851,11.33,5.2,-5.85
6.854,11.33,5.2,-5.85
6.856,-1.7,-5.53,-14.52
6.908,-1.7,-5.53,-14.52
6.913,-1.7,-5.53,-14.52
6.919,2.7,-7.53,2.09
6.993,2.7,-7.53,2.09
6.996,2.7,-7.53,2.09
7.002,-1.79,-3.94,0.1
7.04,-1.79,-3.94,0.1
7.042,-1.79,-3.94,0.1
7.045,-1.79,-3.94,0.1
7.047,0.3,1.68,4.59
7.087,0.3,1.68,4.59
7.09,0.3,1.68,4.59
7.092,-6.08,9.18,0.09
7.148,-6.08,9.18,0.09
7.15,-6.08,9.18,0.09
7.152,-20.91,0.97,-7.28
7.206,-20.91,0.97,-7.28
7.209,-20.91,0.97,-7.28
7.211,-20.91,0.97,-7.28
7.213,-3.83,8.15,-7.16
7.295,-3.83,8.15,-7.16
7.297,-3.83,8.15,-7.16
7.3,-13.91,0.15,-13.47
7.337,-13.91,0.15,-13.47
7.34,-13.91,0.15,-13.47
7.343,2.24,-0.34,-1.19
7.388,2.24,-0.34,-1.19
7.39,2.24,-0.34,-1.19
7.396,2.24,-0.34,-1.19
7.398,-1.01,-0.97,-0.61
7.447,-1.01,-0.97,-0.61
7.449,-1.01,-0.97,-0.61
7.45,-1.53,-0.63,-1.31
7.507,-1.53,-0.63,-1.31
7.51,-1.53,-0.63,-1.31
7.511,1.14,0.36,0.43
7.58,1.14,0.36,0.43
7.583,1.14,0.36,0.43
7.585,1.14,0.36,0.43
7.587,-0.89,0.52,-0.46
7.639,-0.89,0.52,-0.46
7.642,-0.89,0.52,-0.46
7.644,0.77,2.55,-1.17
7.699,0.77,2.55,-1.17
7.702,0.77,2.55,-1.17
7.703,4.27,3.05,-0.57
7.747,4.27,3.05,-0.57
7.75,4.27,3.05,-0.57
7.751,4.27,3.05,-0.57
7.753,6.44,7.58,-1.62
7.806,6.44,7.58,-1.62
7.809,6.44,7.58,-1.62
7.811,7.92,4.49,-1.32
7.911,7.92,4.49,-1.32
7.918,7.92,4.49,-1.32
7.922,3.82,-4.35,1.7
7.975,3.82,-4.35,1.7
7.981,3.82,-4.35,1.7
7.987,3.82,-4.35,1.7
7.989,2.56,-7.58,1.62
7.99,2.56,-7.58,1.62
7.992,2.56,-7.58,1.62
7.993,-1.86,-4.7,-1.63
8.049,-1.86,-4.7,-1.63
8.051,-1.86,-4.7,-1.63
8.053,-0.47,2.35,1.47
8.109,-0.47,2.35,1.47
8.111,-0.47,2.35,1.47
8.113,-0.47,2.35,1.47
8.12,-6.35,10.89,1.85
8.168,-6.35,10.89,1.85
8.171,-6.35,10.89,1.85
8.173,-18.5,3.57,-5.32
8.229,-18.5,3.57,-5.32
8.232,-18.5,3.57,-5.32
8.235,-2.62,11.03,-2.12
8.306,-2.62,11.03,-2.12
8.309,-2.62,11.03,-2.12
8.31,-2.62,11.03,-2.12
8.316,-14.13,1.73,-17.63
8.368,-14.13,1.73,-17.63
8.372,-14.13,1.73,-17.63
8.374,-1.43,-0.55,-2.08
8.434,-1.43,-0.55,-2.08
8.437,-1.43,-0.55,-2.08
8.439,-0.66,-0.3,-1.5
8.469,-0.66,-0.3,-1.5
8.471,-0.66,-0.3,-1.5
8.473,-0.66,-0.3,-1.5
8.475,-2.11,-0.73,-0.68
8.527,-2.11,-0.73,-0.68
8.53,-2.11,-0.73,-0.68
8.531,0.16,0.4,0.35
8.601,0.16,0.4,0.35
8.603,0.16,0.4,0.35
8.605,-0.48,0.5,-0.8
8.65,-0.48,0.5,-0.8
8.653,-0.48,0.5,-0.8
8.656,-0.48,0.5,-0.8
8.658,0.98,2.26,-0.97
8.712,0.98,2.26,-0.97
8.716,0.98,2.26,-0.97
8.719,3.34,3.79,0.18
8.769,3.34,3.79,0.18
8.771,3.34,3.79,0.18
8.773,4.61,8.4,-3.18
8.835,4.61,8.4,-3.18
8.837,4.61,8.4,-3.18
8.839,4.61,8.4,-3.18
8.84,2.3,2.45,7.88
8.905,2.3,2.45,7.88
8.907,2.3,2.45,7.88
8.909,4.92,-5.76,3.35
8.951,4.92,-5.76,3.35
8.957,4.92,-5.76,3.35
8.958,2.48,-7.62,-0.32
9.019,2.48,-7.62,-0.32
9.021,2.48,-7.62,-0.32
9.023,2.48,-7.62,-0.32
9.025,-4.85,-2.86,-0.12
9.068,-4.85,-2.86,-0.12
9.071,-4.85,-2.86,-0.12
9.073,-1.5,2.39,3.79
9.138,-1.5,2.39,3.79
9.146,-1.5,2.39,3.79
9.148,-10.12,11.56,-1.91
9.215,-10.12,11.56,-1.91
9.221,-10.12,11.56,-1.91
9.224,-10.12,11.56,-1.91
9.226,-15.4,4.37,-1.28
9.249,-15.4,4.37,-1.28
9.252,-15.4,4.37,-1.28
9.254,4.75,2.23,7.87
9.314,4.75,2.23,7.87
9.317,4.75,2.23,7.87
9.319,-17.38,5.48,-10.79
9.387,-17.38,5.48,-10.79
9.391,-17.38,5.48,-10.79
9.393,-17.38,5.48,-10.79
9.396,0.21,-0.52,-3.71
9.439,0.21,-0.52,-3.71
9.459,0.21,-0.52,-3.71
9.461,-1.15,-1.15,-1.52
9.508,-1.15,-1.15,-1.52
9.511,-1.15,-1.15,-1.52
9.515,-0.61,-0.63,-0.23
9.561,-0.61,-0.63,-0.23
9.564,-0.61,-0.63,-0.23
9.566,-0.61,-0.63,-0.23
9.569,-0.57,0.09,-0.24
9.611,-0.57,0.09,-0.24
9.613,-0.57,0.09,-0.24
9.616,0.69,0.87,-1.19
9.671,0.69,0.87,-1.19
9.673,0.69,0.87,-1.19
9.676,1.88,2.78,-0.76
9.731,1.88,2.78,-0.76
9.739,1.88,2.78,-0.76
9.743,1.88,2.78,-0.76
9.748,3.4,4.9,-0.54
9.79,3.4,4.9,-0.54
9.793,3.4,4.9,-0.54
9.795,6.39,9.66,-5.59
9.852,6.39,9.66,-5.59
9.856,6.39,9.66,-5.59
9.858,-4.65,-5.44,-14.75
9.91,-4.65,-5.44,-14.75
9.913,-4.65,-5.44,-14.75
9.915,-4.65,-5.44,-14.75
9.917,3.19,-8.5,5.25
9.973,3.19,-8.5,5.25
9.984,3.19,-8.5,5.25
9.987,-1.46,-6.36,0.67
10.031,-1.46,-6.36,0.67
10.034,-1.46,-6.36,0.67
10.036,-4.04,-0.57,2.86
10.11,-4.04,-0.57,2.86
10.113,-4.04,-0.57,2.86
10.115,-4.04,-0.57,2.86
10.117,-5.5,7.27,4.06
10.159,-5.5,7.27,4.06
10.162,-5.5,7.27,4.06
10.164,-18.5,6.43,-8.54
10.228,-18.5,6.43,-8.54
10.232,-18.5,6.43,-8.54
10.234,-7.38,2.99,-7.07
10.271,-7.38,2.99,-7.07
10.275,-7.38,2.99,-7.07
10.277,-7.38,2.99,-7.07
10.279,-7.54,-6.4,-6.25
10.329,-7.54,-6.4,-6.25
10.331,-7.54,-6.4,-6.25
10.333,-0.66,0.08,-1.74
10.393,-0.66,0.08,-1.74
10.401,-0.66,0.08,-1.74
10.405,0.19,-0.16,2.35
10.449,0.19,-0.16,2.35
10.452,0.19,-0.16,2.35
10.454,0.19,-0.16,2.35
10.458,1.6,0.07,-1.43
10.514,1.6,0.07,-1.43
10.517,1.6,0.07,-1.43
10.519,2.34,0.44,0.85
10.571,2.34,0.44,0.85
10.575,2.34,0.44,0.85
10.578,-1.3,0.51,-0.48
10.637,-1.3,0.51,-0.48
10.64,-1.3,0.51,-0.48
10.644,-1.3,0.51,-0.48
10.646,1.72,1.5,-0.49
10.689,1.72,1.5,-0.49
10.695,1.72,1.5,-0.49
10.697,2.4,3.59,-1.38
10.756,2.4,3.59,-1.38
10.76,2.4,3.59,-1.38
10.763,5.2,7.77,-0.25
10.838,5.2,7.77,-0.25
10.849,5.2,7.77,-0.25
10.855,5.2,7.77,-0.25
10.857,8.03,4.44,-3.91
10.874,8.03,4.44,-3.91
10.876,8.03,4.44,-3.91
10.878,6.1,-3.03,2.47
10.97,6.1,-3.03,2.47
10.973,6.1,-3.03,2.47
10.976,1.51,-7.34,0.27
11.015,1.51,-7.34,0.27
11.019,1.51,-7.34,0.27
11.021,1.51,-7.34,0.27
11.023,-3.63,-3.46,0.36
11.065,-3.63,-3.46,0.36
11.068,-3.63,-3.46,0.36
11.069,-0.21,1.78,3.8
11.112,-0.21,1.78,3.8
11.115,-0.21,1.78,3.8
11.117,-5.75,7.84,-0.32
11.181,-5.75,7.84,-0.32
11.19,-5.75,7.84,-0.32
11.192,-5.75,7.84,-0.32
11.195,-17.91,1.18,-5.07
11.235,-17.91,1.18,-5.07
11.238,-17.91,1.18,-5.07
11.242,0.87,16.04,3.72
11.294,0.87,16.04,3.72
11.297,0.87,16.04,3.72
11.299,-16.34,2.91,-15.81
11.356,-16.34,2.91,-15.81
11.363,-16.34,2.91,-15.81
11.37,-16.34,2.91,-15.81
11.374,2.98,1.48,-1.05
11.435,2.98,1.48,-1.05
11.439,2.98,1.48,-1.05
11.441,0.29,-0.55,-1.03
11.52,0.29,-0.55,-1.03
11.527,0.29,-0.55,-1.03
11.531,0.34,-0.44,-0.24
11.534,0.34,-0.44,-0.24
11.536,0.34,-0.44,-0.24
11.538,0.34,-0.44,-0.24
11.541,0.14,0.36,-0.14
11.642,0.14,0.36,-0.14
11.647,0.14,0.36,-0.14
11.649,0.43,0.94,-0.89
11.657,0.43,0.94,-0.89
11.668,0.43,0.94,-0.89
11.671,1.9,2.3,-1.05
11.717,1.9,2.3,-1.05
11.719,1.9,2.3,-1.05
11.726,1.9,2.3,-1.05
11.728,2.87,3.82,-0.26
11.785,2.87,3.82,-0.26
11.788,2.87,3.82,-0.26
11.789,4.81,7.67,-4.76
11.856,4.81,7.67,-4.76
11.859,4.81,7.67,-4.76
11.861,-1.77,1.15,-2.42
11.906,-1.77,1.15,-2.42
11.909,-1.77,1.15,-2.42
11.913,-1.77,1.15,-2.42
11.914,3.53,-6.53,2.77
11.95,3.53,-6.53,2.77
11.952,3.53,-6.53,2.77
11.954,0.14,-7.08,-1.35
12.013,0.14,-7.08,-1.35
12.016,0.14,-7.08,-1.35
12.018,-3.83,-2.65,-0.01
12.071,-3.83,-2.65,-0.01
12.073,-3.83,-2.65,-0.01
12.075,-3.83,-2.65,-0.01
12.077,-1.46,4.54,3.53
12.132,-1.46,4.54,3.53
12.135,-1.46,4.54,3.53
12.138,-9.66,11.73,-2.17
12.191,-9.66,11.73,-2.17
12.194,-9.66,11.73,-2.17
12.196,-13.29,3.21,-0.66
12.254,-13.29,3.21,-0.66
12.257,-13.29,3.21,-0.66
12.259,-13.29,3.21,-0.66
12.261,9.86,-1.49,21.69
12.333,9.86,-1.49,21.69
12.338,9.86,-1.49,21.69
12.34,-9.95,-1.16,-0.21
12.393,-9.95,-1.16,-0.21
12.401,-9.95,-1.16,-0.21
12.403,1.92,2.05,2.59
12.466,1.92,2.05,2.59
12.471,1.92,2.05,2.59
12.472,1.92,2.05,2.59
12.475,-1.97,0.78,-1.27
12.493,-1.97,0.78,-1.27
12.496,-1.97,0.78,-1.27
12.498,1.32,0.7,0.93
12.608,1.32,0.7,0.93
12.611,1.32,0.7,0.93
12.612,-0.92,0.61,-0.11
12.626,-0.92,0.61,-0.11
12.628,-0.92,0.61,-0.11
12.63,-0.92,0.61,-0.11
12.631,0.78,1.53,-0.99
12.672,0.78,1.53,-0.99
12.676,0.78,1.53,-0.99
12.678,3.73,3.35,-0.36
12.734,3.73,3.35,-0.36
12.737,3.73,3.35,-0.36
12.739,6.9,8,-0.66
12.814,6.9,8,-0.66
12.82,6.9,8,-0.66
12.822,6.9,8,-0.66
12.824,9.66,5.78,-6.57
12.86,9.66,5.78,-6.57
12.862,9.66,5.78,-6.57
12.864,0.93,-4.01,-3.96
12.916,0.93,-4.01,-3.96
12.919,0.93,-4.01,-3.96
12.922,2.21,-8.33,2.77
12.996,2.21,-8.33,2.77
13,2.21,-8.33,2.77
13.003,2.21,-8.33,2.77
13.005,-1.89,-5.08,-0.95
13.04,-1.89,-5.08,-0.95
13.042,-1.89,-5.08,-0.95
13.047,-2.19,-0.51,2.51
13.095,-2.19,-0.51,2.51
13.097,-2.19,-0.51,2.51
13.1,-3.91,8.44,2.14
13.151,-3.91,8.44,2.14
13.156,-3.91,8.44,2.14
13.157,-3.91,8.44,2.14
13.159,-19.94,3.92,-8
13.222,-19.94,3.92,-8
13.224,-19.94,3.92,-8
13.226,-11.05,0.79,-3.67
13.272,-11.05,0.79,-3.67
13.275,-11.05,0.79,-3.67
13.277,-8.71,-7.68,1.2
13.332,-8.71,-7.68,1.2
13.337,-8.71,-7.68,1.2
13.339,-8.71,-7.68,1.2
13.341,-6.46,0.09,-4.67
13.392,-6.46,0.09,-4.67
13.395,-6.46,0.09,-4.67
13.405,-1.56,1.13,2.92
13.456,-1.56,1.13,2.92
13.464,-1.56,1.13,2.92
13.466,-1.93,0.09,-1.61
13.512,-1.93,0.09,-1.61
13.515,-1.93,0.09,-1.61
13.516,-1.93,0.09,-1.61
13.518,0.83,0.42,0.33
13.593,0.83,0.42,0.33
13.596,0.83,0.42,0.33
13.598,-1.19,0.38,-0.31
13.67,-1.19,0.38,-0.31
13.674,-1.19,0.38,-0.31
13.676,-0.06,0.92,-0.44
13.716,-0.06,0.92,-0.44
13.719,-0.06,0.92,-0.44
13.721,-0.06,0.92,-0.44
13.723,1.95,2.53,-1.4
13.752,1.95,2.53,-1.4
13.755,1.95,2.53,-1.4
13.758,3.34,3.83,-0.18
13.813,3.34,3.83,-0.18
13.815,3.34,3.83,-0.18
13.817,3.53,6.19,-2.48
13.875,3.53,6.19,-2.48
13.878,3.53,6.19,-2.48
13.88,3.53,6.19,-2.48
13.882,6.61,3.4,1.17
13.951,6.61,3.4,1.17
13.955,6.61,3.4,1.17
13.963,7.11,-4.37,3.18
13.997,7.11,-4.37,3.18
13.999,7.11,-4.37,3.18
14.001,2.76,-6.12,1.62
14.053,2.76,-6.12,1.62
14.058,2.76,-6.12,1.62
14.06,2.76,-6.12,1.62
14.062,-0.75,-3.33,-0.45
14.116,-0.75,-3.33,-0.45
14.119,-0.75,-3.33,-0.45
14.12,-2.8,1.57,2.99
14.178,-2.8,1.57,2.99
14.18,-2.8,1.57,2.99
14.182,-5.74,7.6,3.14
14.234,-5.74,7.6,3.14
14.237,-5.74,7.6,3.14
14.238,-5.74,7.6,3.14
14.24,-10.88,3.38,-0.66
14.292,-10.88,3.38,-0.66
14.298,-10.88,3.38,-0.66
14.3,-0.87,17.71,-6.4
14.357,-0.87,17.71,-6.4
14.365,-0.87,17.71,-6.4
14.369,-0.43,-5.22,-0.73
14.442,-0.43,-5.22,-0.73
14.448,-0.43,-5.22,-0.73
14.451,-0.43,-5.22,-0.73
14.453,-1.11,0.73,-0.2
14.497,-1.11,0.73,-0.2
14.505,-1.11,0.73,-0.2
14.516,3.84,0.46,1.91
14.553,3.84,0.46,1.91
14.557,3.84,0.46,1.91
14.559,0.51,0.66,0.2
14.631,0.51,0.66,0.2
14.634,0.51,0.66,0.2
14.637,0.51,0.66,0.2
14.639,2,0.53,0.69
14.654,2,0.53,0.69
14.657,2,0.53,0.69
14.663,0.88,0.31,0
14.715,0.88,0.31,0
14.717,0.88,0.31,0
14.718,0.08,0.1,-0.22
14.773,0.08,0.1,-0.22
14.78,0.08,0.1,-0.22
14.782,0.08,0.1,-0.22
14.784,0.56,0.14,-0.62
14.836,0.56,0.14,-0.62
14.841,0.56,0.14,-0.62
14.845,-0.64,-0.57,-1.16
14.894,-0.64,-0.57,-1.16
14.896,-0.64,-0.57,-1.16
14.897,-2.58,0.33,1.35
14.957,-2.58,0.33,1.35
14.968,-2.58,0.33,1.35
14.97,-2.58,0.33,1.35
14.972,0.67,0.95,1.09
15.019,0.67,0.95,1.09
15.021,0.67,0.95,1.09
15.023,-0.12,-1.12,-0.61
15.075,-0.12,-1.12,-0.61
15.08,-0.12,-1.12,-0.61
15.082,0.17,-0.83,-0.77
15.134,0.17,-0.83,-0.77
15.137,0.17,-0.83,-0.77
15.139,0.17,-0.83,-0.77
15.141,0.01,-1.17,-1.91
15.204,0.01,-1.17,-1.91
15.207,0.01,-1.17,-1.91
15.209,0.46,-0.04,-1.66
15.257,0.46,-0.04,-1.66
15.26,0.46,-0.04,-1.66
15.263,1.52,-0.35,0.54
15.314,1.52,-0.35,0.54
15.317,1.52,-0.35,0.54
15.319,1.52,-0.35,0.54
15.321,1.2,0.37,1.3
15.374,1.2,0.37,1.3
15.378,1.2,0.37,1.3
15.38,0.25,-0.39,-0.34
15.434,0.25,-0.39,-0.34
15.437,0.25,-0.39,-0.34
15.439,0.67,-0.2,-0.87
15.497,0.67,-0.2,-0.87
15.511,0.67,-0.2,-0.87
15.514,0.67,-0.2,-0.87
15.526,1.92,0.42,1.42
15.555,1.92,0.42,1.42
15.558,1.92,0.42,1.42
15.561,2.26,1.48,4.9
15.614,2.26,1.48,4.9
15.617,2.26,1.48,4.9
15.618,1.04,1.44,3.53
15.675,1.04,1.44,3.53
15.677,1.04,1.44,3.53
15.679,1.04,1.44,3.53
15.68,1.44,0.46,1.23
15.737,1.44,0.46,1.23
15.74,1.44,0.46,1.23
15.751,-2.44,-2.81,-2.03
15.816,-2.44,-2.81,-2.03
15.822,-2.44,-2.81,-2.03
15.823,-2.48,-0.23,-1.39
15.899,-2.48,-0.23,-1.39
15.906,-2.48,-0.23,-1.39
15.912,-2.48,-0.23,-1.39
15.916,2.1,3.07,0.76
15.919,2.1,3.07,0.76
15.922,2.1,3.07,0.76
15.925,-3.61,0.35,-1.42
15.985,-3.61,0.35,-1.42
15.988,-3.61,0.35,-1.42
15.99,0.55,0.13,-0.41
16.056,0.55,0.13,-0.41
16.059,0.55,0.13,-0.41
16.061,0.55,0.13,-0.41
16.063,0.15,0.13,-0.32
16.098,0.15,0.13,-0.32
16.1,0.15,0.13,-0.32
16.102,-0.09,0.25,-0.34
16.155,-0.09,0.25,-0.34
16.166,-0.09,0.25,-0.34
16.168,-0.36,0.31,-0.77
16.219,-0.36,0.31,-0.77
16.221,-0.36,0.31,-0.77
16.222,-0.36,0.31,-0.77
16.224,0.46,0.5,0.47
16.274,0.46,0.5,0.47
16.277,0.46,0.5,0.47
16.278,1.65,3.53,7.61
16.4,1.65,3.53,7.61
16.413,1.65,3.53,7.61
16.417,1.8,1.05,-0.9
16.419,1.8,1.05,-0.9
16.421,1.8,1.05,-0.9
16.424,1.8,1.05,-0.9
16.426,1.45,-1.07,-3.77
16.479,1.45,-1.07,-3.77
16.482,1.45,-1.07,-3.77
16.491,-1.2,-2.39,-6.29
16.515,-1.2,-2.39,-6.29
16.517,-1.2,-2.39,-6.29
16.519,0.99,0.29,-0.53
16.575,0.99,0.29,-0.53
16.577,0.99,0.29,-0.53
16.579,0.99,0.29,-0.53
16.581,2.68,1.09,0.9
16.64,2.68,1.09,0.9
16.646,2.68,1.09,0.9
16.648,0.21,-1.14,-0.65
16.705,0.21,-1.14,-0.65
16.707,0.21,-1.14,-0.65
16.709,-0.79,-0.07,-0.55
16.775,-0.79,-0.07,-0.55
16.783,-0.79,-0.07,-0.55
16.786,-0.79,-0.07,-0.55
16.793,0.89,1.37,-0.41
16.82,0.89,1.37,-0.41
16.822,0.89,1.37,-0.41
16.823,1.14,1.18,1.04
16.883,1.14,1.18,1.04
16.886,1.14,1.18,1.04
16.888,0.62,0.64,1.39
16.962,0.62,0.64,1.39
16.965,0.62,0.64,1.39
16.966,0.62,0.64,1.39
16.968,-0.71,-0.06,0.24
17.006,-0.71,-0.06,0.24
17.008,-0.71,-0.06,0.24
17.01,-0.69,-0.37,0.1
17.071,-0.69,-0.37,0.1
17.075,-0.69,-0.37,0.1
17.077,-0.75,-0.33,-0.11
17.118,-0.75,-0.33,-0.11
17.122,-0.75,-0.33,-0.11
17.124,-0.75,-0.33,-0.11
17.126,-0.33,-0.16,0.19
17.175,-0.33,-0.16,0.19
17.178,-0.33,-0.16,0.19
17.18,0.08,-0.04,0.23
17.237,0.08,-0.04,0.23
17.245,0.08,-0.04,0.23
17.247,0.32,0.26,0.32
17.296,0.32,0.26,0.32
17.298,0.32,0.26,0.32
17.3,0.32,0.26,0.32
17.302,0.07,0.3,0.22
17.359,0.07,0.3,0.22
17.361,0.07,0.3,0.22
17.363,0.17,0.26,0.04
17.456,0.17,0.26,0.04
17.459,0.17,0.26,0.04
17.461,0.19,0.03,0.25
17.505,0.19,0.03,0.25
17.507,0.19,0.03,0.25
17.509,0.19,0.03,0.25
17.511,0.16,-0.11,0.26
17.536,0.16,-0.11,0.26
17.539,0.16,-0.11,0.26
17.54,-0.15,-0.41,-0.06
17.598,-0.15,-0.41,-0.06
17.6,-0.15,-0.41,-0.06
17.602,-0.22,-0.16,-0.06
17.657,-0.22,-0.16,-0.06
17.66,-0.22,-0.16,-0.06
17.662,-0.22,-0.16,-0.06
17.665,0.03,0.47,0.01
17.748,0.03,0.47,0.01
17.755,0.03,0.47,0.01
17.757,0.11,0.18,0.11
17.824,0.11,0.18,0.11
17.827,0.11,0.18,0.11
17.829,0.37,-0.13,-0.02
17.839,0.37,-0.13,-0.02
17.841,0.37,-0.13,-0.02
17.842,0.37,-0.13,-0.02
17.844,-0.23,-0.38,-0.04
17.897,-0.23,-0.38,-0.04
17.899,-0.23,-0.38,-0.04
17.901,-0.35,-0.13,-0.29
17.959,-0.35,-0.13,-0.29
17.961,-0.35,-0.13,-0.29
17.963,0.47,0.11,0.21
18.023,0.47,0.11,0.21
18.046,0.47,0.11,0.21
18.048,0.47,0.11,0.21
18.05,0.3,0.07,0.28
18.125,0.3,0.07,0.28
18.128,0.3,0.07,0.28
18.13,-0.16,-0.63,-3.49
18.137,-0.16,-0.63,-3.49
18.139,-0.16,-0.63,-3.49
18.143,0.15,0.1,0.5
18.196,0.15,0.1,0.5
18.199,0.15,0.1,0.5
18.202,0.15,0.1,0.5
18.204,0.39,0.18,0.68
18.261,0.39,0.18,0.68
18.265,0.39,0.18,0.68
18.267,-0.62,0.28,-0.3
18.331,-0.62,0.28,-0.3
18.333,-0.62,0.28,-0.3
18.342,0.16,0.09,0.26
18.377,0.16,0.09,0.26
18.38,0.16,0.09,0.26
18.382,0.16,0.09,0.26
18.384,-0.08,-0.28,-0.07
18.437,-0.08,-0.28,-0.07
18.441,-0.08,-0.28,-0.07
18.443,-0.12,-0.13,-0.18
18.499,-0.12,-0.13,-0.18
18.501,-0.12,-0.13,-0.18
18.502,0.07,0.13,0.05
18.559,0.07,0.13,0.05
18.562,0.07,0.13,0.05
18.564,0.07,0.13,0.05
18.575,0.22,0.13,0.21
18.619,0.22,0.13,0.21
18.621,0.22,0.13,0.21
18.623,-0.13,0.07,-0.11
18.678,-0.13,0.07,-0.11
18.681,-0.13,0.07,-0.11
18.683,-0.42,-0.35,-0.24
18.766,-0.42,-0.35,-0.24
18.776,-0.42,-0.35,-0.24
18.778,-0.42,-0.35,-0.24
18.779,-0.08,-0.33,0
18.841,-0.08,-0.33,0
18.847,-0.08,-0.33,0
18.849,0.05,0.02,0.07
18.858,0.05,0.02,0.07
18.86,0.05,0.02,0.07
18.863,0.41,0.31,-0.19
18.926,0.41,0.31,-0.19
18.933,0.41,0.31,-0.19
18.939,0.41,0.31,-0.19
18.944,0.26,0.21,-0.11
18.979,0.26,0.21,-0.11
18.982,0.26,0.21,-0.11
18.984,-0.03,-0.07,0
19.048,-0.03,-0.07,0
19.051,-0.03,-0.07,0
19.052,-0.13,-0.16,0.22
19.098,-0.13,-0.16,0.22
19.101,-0.13,-0.16,0.22
19.104,-0.13,-0.16,0.22
19.106,-0.02,-0.18,0.02
19.164,-0.02,-0.18,0.02
19.171,-0.02,-0.18,0.02
19.173,0.07,0.2,-0.39
19.22,0.07,0.2,-0.39
19.222,0.07,0.2,-0.39
19.224,0.38,0.28,0.23
19.278,0.38,0.28,0.23
19.283,0.38,0.28,0.23
19.295,0.38,0.28,0.23
19.3,0.13,0.02,0.34
19.353,0.13,0.02,0.34
19.356,0.13,0.02,0.34
19.359,-0.27,-0.15,-0.27
19.403,-0.27,-0.15,-0.27
19.406,-0.27,-0.15,-0.27
19.41,0.2,-0.04,-0.3
19.46,0.2,-0.04,-0.3
19.463,0.2,-0.04,-0.3
19.467,0.2,-0.04,-0.3
19.469,-1.59,0.27,-0.25
19.518,-1.59,0.27,-0.25
19.52,-1.59,0.27,-0.25
19.522,-0.69,-0.5,0.05
19.58,-0.69,-0.5,0.05
19.585,-0.69,-0.5,0.05
19.589,-0.27,-0.24,-0.26
19.659,-0.27,-0.24,-0.26
19.661,-0.27,-0.24,-0.26
19.663,-0.27,-0.24,-0.26
19.665,0.26,-0.28,0.43
19.699,0.26,-0.28,0.43
19.701,0.26,-0.28,0.43
19.704,-0.61,0.1,-0.53
19.758,-0.61,0.1,-0.53
19.761,-0.61,0.1,-0.53
19.763,-0.11,-0.11,-0.14
19.819,-0.11,-0.11,-0.14
19.823,-0.11,-0.11,-0.14
19.826,-0.11,-0.11,-0.14
19.831,-0.04,-0.17,0.07
19.891,-0.04,-0.17,0.07
19.895,-0.04,-0.17,0.07
19.898,0.31,-0.05,0.01
19.979,0.31,-0.05,0.01
19.984,0.31,-0.05,0.01
19.987,-0.17,-0.02,-0.12
20.001,-0.17,-0.02,-0.12
20.007,-0.17,-0.02,-0.12
20.009,-0.17,-0.02,-0.12
20.011,0.14,0.08,-0.09
20.079,0.14,0.08,-0.09
20.086,0.14,0.08,-0.09
20.088,0.13,-0.13,-0.06
20.125,0.13,-0.13,-0.06
20.127,0.13,-0.13,-0.06
20.129,0.14,-0.02,-0.17
20.178,0.14,-0.02,-0.17
20.181,0.14,-0.02,-0.17
20.182,0.14,-0.02,-0.17
20.184,0.01,0.01,-0.06
20.24,0.01,0.01,-0.06
20.246,0.01,0.01,-0.06
20.251,-0.03,-0.13,0.12
20.299,-0.03,-0.13,0.12
20.302,-0.03,-0.13,0.12
20.304,-0.12,-0.25,-0.02
20.387,-0.12,-0.25,-0.02
20.39,-0.12,-0.25,-0.02
20.392,-0.12,-0.25,-0.02
20.394,0.1,0.08,0
20.428,0.1,0.08,0
20.43,0.1,0.08,0
20.432,0.02,0.08,0.19
20.48,0.02,0.08,0.19
20.487,0.02,0.08,0.19
20.489,0.09,0.06,-0.11
20.543,0.09,0.06,-0.11
20.547,0.09,0.06,-0.11
20.549,0.09,0.06,-0.11
20.551,0.05,-0.04,0.04
20.601,0.05,-0.04,0.04
20.605,0.05,-0.04,0.04
20.606,-0.05,-0.14,-0.06
20.659,-0.05,-0.14,-0.06
20.67,-0.05,-0.14,-0.06
20.672,0.12,-0.01,-0.04
20.72,0.12,-0.01,-0.04
20.724,0.12,-0.01,-0.04
20.726,0.12,-0.01,-0.04
20.728,0.86,-0.13,0.08
20.784,0.86,-0.13,0.08
20.786,0.86,-0.13,0.08
20.79,-0.35,0.02,-0.24
20.861,-0.35,0.02,-0.24
20.863,-0.35,0.02,-0.24
20.865,-0.94,-0.3,-0.05
20.922,-0.94,-0.3,-0.05
20.926,-0.94,-0.3,-0.05
20.928,-0.94,-0.3,-0.05
20.929,1.17,0.12,1.47
