time,ax,ay,az
0.004,0.14,-0.49,-0.78
0.021,0.14,-0.49,-0.78
0.023,0.14,-0.49,-0.78
0.066,0.51,0.12,0.13
0.094,0.51,0.12,0.13
0.097,0.51,0.12,0.13
0.099,0.51,0.12,0.13
0.124,0.11,-0.02,0.12
0.141,0.11,-0.02,0.12
0.144,0.11,-0.02,0.12
0.184,-0.1,-0.15,0.07
0.202,-0.1,-0.15,0.07
0.204,-0.1,-0.15,0.07
0.248,0.1,0.01,0.05
0.265,0.1,0.01,0.05
0.269,0.1,0.01,0.05
0.271,0.1,0.01,0.05
0.315,-0.01,-0.05,0.12
0.322,-0.01,-0.05,0.12
0.324,-0.01,-0.05,0.12
0.366,-0.05,-0.03,-0.05
0.385,-0.05,-0.03,-0.05
0.388,-0.05,-0.03,-0.05
0.435,0.08,-0.15,0.1
0.442,0.08,-0.15,0.1
0.444,0.08,-0.15,0.1
0.446,0.08,-0.15,0.1
0.485,-0.22,-0.06,-0.59
0.502,-0.22,-0.06,-0.59
0.51,-0.22,-0.06,-0.59
0.549,-0.8,-0.22,-0.21
0.563,-0.8,-0.22,-0.21
0.566,-0.8,-0.22,-0.21
0.607,-0.73,-0.25,0.87
0.644,-0.73,-0.25,0.87
0.647,-0.73,-0.25,0.87
0.656,-0.73,-0.25,0.87
0.694,-1.89,-0.59,1.14
0.7,-1.89,-0.59,1.14
0.702,-1.89,-0.59,1.14
0.732,-3.28,-0.38,-0.5
0.742,-3.28,-0.38,-0.5
0.744,-3.28,-0.38,-0.5
0.787,-4.92,1.75,-0.03
0.805,-4.92,1.75,-0.03
0.811,-4.92,1.75,-0.03
0.816,-4.92,1.75,-0.03
0.857,-1.1,1.23,-0.41
0.862,-1.1,1.23,-0.41
0.865,-1.1,1.23,-0.41
0.905,-1.45,0.9,-0.06
0.941,-1.45,0.9,-0.06
0.944,-1.45,0.9,-0.06
0.966,0.59,0.26,0.24
0.986,0.59,0.26,0.24
0.991,0.59,0.26,0.24
0.993,0.59,0.26,0.24
1.04,2.15,0.21,0.39
1.045,2.15,0.21,0.39
1.048,2.15,0.21,0.39
1.087,2.4,-0.16,-0.25
1.118,2.4,-0.16,-0.25
1.139,2.4,-0.16,-0.25
1.149,1.89,-0.9,-2.19
1.163,1.89,-0.9,-2.19
1.164,1.89,-0.9,-2.19
1.169,1.89,-0.9,-2.19
1.208,0.1,-0.2,-6.18
1.223,0.1,-0.2,-6.18
1.225,0.1,-0.2,-6.18
1.267,4.2,-0.59,-4.51
1.287,4.2,-0.59,-4.51
1.289,4.2,-0.59,-4.51
1.342,4.38,-0.29,-2.4
1.345,4.38,-0.29,-2.4
1.347,4.38,-0.29,-2.4
1.349,4.38,-0.29,-2.4
1.387,-3.45,-0.01,-1.48
1.41,-3.45,-0.01,-1.48
1.419,-3.45,-0.01,-1.48
1.454,11.94,1.65,6.97
1.463,11.94,1.65,6.97
1.467,11.94,1.65,6.97
1.507,2.04,-0.64,0.97
1.526,2.04,-0.64,0.97
1.538,2.04,-0.64,0.97
1.541,2.04,-0.64,0.97
1.571,-4.35,-0.92,-1.17
1.584,-4.35,-0.92,-1.17
1.588,-4.35,-0.92,-1.17
1.636,2.11,0.69,1.36
1.643,2.11,0.69,1.36
1.645,2.11,0.69,1.36
1.69,-1.16,0.1,-0.36
1.707,-1.16,0.1,-0.36
1.714,-1.16,0.1,-0.36
1.719,-1.16,0.1,-0.36
1.757,-1.06,0.12,0.01
1.764,-1.06,0.12,0.01
1.765,-1.06,0.12,0.01
1.806,0.65,0.5,-0.25
1.824,0.65,0.5,-0.25
1.828,0.65,0.5,-0.25
1.869,1.22,0.38,-0.04
1.884,1.22,0.38,-0.04
1.886,1.22,0.38,-0.04
1.893,1.22,0.38,-0.04
1.934,0.77,0.33,-0.01
1.949,0.77,0.33,-0.01
1.951,0.77,0.33,-0.01
1.986,1.02,0.22,0.37
2.008,1.02,0.22,0.37
2.01,1.02,0.22,0.37
2.055,1.22,0.65,0.82
2.066,1.22,0.65,0.82
2.071,1.22,0.65,0.82
2.073,1.22,0.65,0.82
2.107,1.25,0.76,2.37
2.129,1.25,0.76,2.37
2.137,1.25,0.76,2.37
2.192,-0.75,0.63,0.4
2.198,-0.75,0.63,0.4
2.201,-0.75,0.63,0.4
2.239,-0.39,0.67,-1.75
2.249,-0.39,0.67,-1.75
2.254,-0.39,0.67,-1.75
2.257,-0.39,0.67,-1.75
2.287,2.49,5.72,3.22
2.304,2.49,5.72,3.22
2.306,2.49,5.72,3.22
2.368,1.7,1.95,1.08
2.371,1.7,1.95,1.08
2.373,1.7,1.95,1.08
2.408,-1.33,1.01,-0.22
2.429,-1.33,1.01,-0.22
2.433,-1.33,1.01,-0.22
2.435,-1.33,1.01,-0.22
2.474,3.66,-3.04,4.01
2.483,3.66,-3.04,4.01
2.485,3.66,-3.04,4.01
2.541,-0.85,-2.48,-0.11
2.553,-0.85,-2.48,-0.11
2.558,-0.85,-2.48,-0.11
2.588,-3.02,-0.74,-1.61
2.606,-3.02,-0.74,-1.61
2.608,-3.02,-0.74,-1.61
2.611,-3.02,-0.74,-1.61
2.674,-4.94,0.27,-2.37
2.678,-4.94,0.27,-2.37
2.68,-4.94,0.27,-2.37
2.706,-7.78,1.83,-4.86
2.727,-7.78,1.83,-4.86
2.73,-7.78,1.83,-4.86
2.792,-9.14,2.1,-0.43
2.798,-9.14,2.1,-0.43
2.8,-9.14,2.1,-0.43
2.802,-9.14,2.1,-0.43
2.829,-5.51,9.18,0.33
2.863,-5.51,9.18,0.33
2.866,-5.51,9.18,0.33
2.887,-6.14,-7.14,-4.36
2.904,-6.14,-7.14,-4.36
2.909,-6.14,-7.14,-4.36
2.961,0.12,0.25,-5.54
2.965,0.12,0.25,-5.54
2.968,0.12,0.25,-5.54
2.97,0.12,0.25,-5.54
3.009,1.27,1.13,-2.08
3.026,1.27,1.13,-2.08
3.029,1.27,1.13,-2.08
3.071,2.01,0.9,-0.4
3.093,2.01,0.9,-0.4
3.097,2.01,0.9,-0.4
3.127,1.08,0.2,0.04
3.158,1.08,0.2,0.04
3.16,1.08,0.2,0.04
3.162,1.08,0.2,0.04
3.19,1.28,0.29,-0.08
3.205,1.28,0.29,-0.08
3.21,1.28,0.29,-0.08
3.255,2.37,0.36,0.4
3.287,2.37,0.36,0.4
3.291,2.37,0.36,0.4
3.312,2.22,0.89,-0.12
3.328,2.22,0.89,-0.12
3.332,2.22,0.89,-0.12
3.336,2.22,0.89,-0.12
3.382,2.3,2.23,-0.74
3.389,2.3,2.23,-0.74
3.394,2.3,2.23,-0.74
3.43,2.73,7.21,-1.07
3.455,2.73,7.21,-1.07
3.459,2.73,7.21,-1.07
3.494,7.19,8.26,-0.82
3.506,7.19,8.26,-0.82
3.51,7.19,8.26,-0.82
3.512,7.19,8.26,-0.82
3.56,10.83,1.35,6.07
3.564,10.83,1.35,6.07
3.567,10.83,1.35,6.07
3.609,0.22,-5.41,7.54
3.629,0.22,-5.41,7.54
3.637,0.22,-5.41,7.54
3.694,1.25,-3.74,-0.52
3.7,1.25,-3.74,-0.52
3.702,1.25,-3.74,-0.52
3.704,1.25,-3.74,-0.52
3.727,-3.83,-3.32,-1.13
3.747,-3.83,-3.32,-1.13
3.749,-3.83,-3.32,-1.13
3.792,-7.03,1.68,-1.08
3.806,-7.03,1.68,-1.08
3.808,-7.03,1.68,-1.08
3.867,-8.38,5.33,-4.92
3.87,-8.38,5.33,-4.92
3.871,-8.38,5.33,-4.92
3.873,-8.38,5.33,-4.92
3.909,-9.25,1.7,-3.09
3.926,-9.25,1.7,-3.09
3.928,-9.25,1.7,-3.09
3.967,-5.06,3.09,0.7
3.986,-5.06,3.09,0.7
3.989,-5.06,3.09,0.7
4.03,-4.11,-2.18,8.6
4.047,-4.11,-2.18,8.6
4.05,-4.11,-2.18,8.6
4.052,-4.11,-2.18,8.6
4.09,0.42,0.19,-1.74
4.119,0.42,0.19,-1.74
4.122,0.42,0.19,-1.74
4.164,-0.61,1.13,1.26
4.169,-0.61,1.13,1.26
4.17,-0.61,1.13,1.26
4.209,3.35,1.66,0.98
4.227,3.35,1.66,0.98
4.229,3.35,1.66,0.98
4.231,3.35,1.66,0.98
4.27,1.45,0.44,1.34
4.286,1.45,0.44,1.34
4.289,1.45,0.44,1.34
4.329,0.87,0.68,0.64
4.346,0.87,0.68,0.64
4.348,0.87,0.68,0.64
4.388,2.56,1.22,1.1
4.408,2.56,1.22,1.1
4.417,2.56,1.22,1.1
4.419,2.56,1.22,1.1
4.476,2.43,2.05,0.58
4.48,2.43,2.05,0.58
4.482,2.43,2.05,0.58
4.508,2.83,7.01,-0.83
4.526,2.83,7.01,-0.83
4.528,2.83,7.01,-0.83
4.568,4.11,9.87,-0.44
4.59,4.11,9.87,-0.44
4.592,4.11,9.87,-0.44
4.594,4.11,9.87,-0.44
4.629,9.89,-0.03,-3.6
4.648,9.89,-0.03,-3.6
4.653,9.89,-0.03,-3.6
4.712,-1.08,-5.87,1.65
4.715,-1.08,-5.87,1.65
4.717,-1.08,-5.87,1.65
4.772,-1.04,-4.48,-0.42
4.775,-1.04,-4.48,-0.42
4.782,-1.04,-4.48,-0.42
4.785,-1.04,-4.48,-0.42
4.812,-3.09,-3.34,0.18
4.84,-3.09,-3.34,0.18
4.849,-3.09,-3.34,0.18
4.879,-6.93,-0.05,-1.78
4.902,-6.93,-0.05,-1.78
4.905,-6.93,-0.05,-1.78
4.932,-7.89,3.66,-1.74
4.948,-7.89,3.66,-1.74
4.95,-7.89,3.66,-1.74
4.951,-7.89,3.66,-1.74
4.988,-5.35,2.82,1.54
5.006,-5.35,2.82,1.54
5.009,-5.35,2.82,1.54
5.049,-2.94,11.03,3.11
5.071,-2.94,11.03,3.11
5.083,-2.94,11.03,3.11
5.12,-6.71,-2.65,3.5
5.128,-6.71,-2.65,3.5
5.13,-6.71,-2.65,3.5
5.131,-6.71,-2.65,3.5
5.177,-0.17,2.52,-2
5.194,-0.17,2.52,-2
5.197,-0.17,2.52,-2
5.23,-0.63,1.35,-0.59
5.247,-0.63,1.35,-0.59
5.251,-0.63,1.35,-0.59
5.29,3.52,1.89,0.89
5.312,3.52,1.89,0.89
5.317,3.52,1.89,0.89
5.319,3.52,1.89,0.89
5.35,2.3,0.67,-0.25
5.39,2.3,0.67,-0.25
5.399,2.3,0.67,-0.25
5.43,1.02,0.28,-0.14
5.436,1.02,0.28,-0.14
5.442,1.02,0.28,-0.14
5.47,1.47,0.57,0.03
5.492,1.47,0.57,0.03
5.495,1.47,0.57,0.03
5.497,1.47,0.57,0.03
5.53,2.49,1.47,0.69
5.549,2.49,1.47,0.69
5.556,2.49,1.47,0.69
5.588,2.74,2.33,-0.61
5.606,2.74,2.33,-0.61
5.609,2.74,2.33,-0.61
5.651,3.01,5.49,-1.03
5.677,3.01,5.49,-1.03
5.686,3.01,5.49,-1.03
5.688,3.01,5.49,-1.03
5.71,6.05,6.76,-0.99
5.727,6.05,6.76,-0.99
5.73,6.05,6.76,-0.99
5.778,-2.99,-3.68,6.39
5.796,-2.99,-3.68,6.39
5.799,-2.99,-3.68,6.39
5.829,2.23,-7.84,1.73
5.849,2.23,-7.84,1.73
5.863,2.23,-7.84,1.73
5.866,2.23,-7.84,1.73
5.92,-3.26,-3.65,-0.12
5.922,-3.26,-3.65,-0.12
5.923,-3.26,-3.65,-0.12
5.949,-2.75,-1.54,0.76
5.967,-2.75,-1.54,0.76
5.971,-2.75,-1.54,0.76
6.009,-5.41,2.6,-0.45
6.027,-5.41,2.6,-0.45
6.029,-5.41,2.6,-0.45
6.031,-5.41,2.6,-0.45
6.079,-4.51,4.27,2.16
6.097,-4.51,4.27,2.16
6.098,-4.51,4.27,2.16
6.13,-6.16,1.55,0.67
6.15,-6.16,1.55,0.67
6.159,-6.16,1.55,0.67
6.219,14.43,9.9,10.76
6.238,14.43,9.9,10.76
6.24,14.43,9.9,10.76
6.243,14.43,9.9,10.76
6.263,-1.91,4.39,-11.44
6.267,-1.91,4.39,-11.44
6.27,-1.91,4.39,-11.44
6.311,2.95,1.61,4.58
6.33,2.95,1.61,4.58
6.333,2.95,1.61,4.58
6.37,-0.58,0.3,-1.88
6.389,-0.58,0.3,-1.88
6.391,-0.58,0.3,-1.88
6.393,-0.58,0.3,-1.88
6.452,2,0.92,0.9
6.454,2,0.92,0.9
6.457,2,0.92,0.9
6.491,2,0.54,0.32
6.51,2,0.54,0.32
6.513,2,0.54,0.32
6.553,0.57,0.43,0.34
6.569,0.57,0.43,0.34
6.572,0.57,0.43,0.34
6.577,0.57,0.43,0.34
6.61,2.52,0.67,0.53
6.667,2.52,0.67,0.53
6.671,2.52,0.67,0.53
6.674,3.31,1.72,1.27
6.691,3.31,1.72,1.27
6.694,3.31,1.72,1.27
6.73,1.6,1.75,-1.01
6.754,1.6,1.75,-1.01
6.758,1.6,1.75,-1.01
6.76,1.6,1.75,-1.01
6.792,1.46,4.4,0.63
6.848,1.46,4.4,0.63
6.852,1.46,4.4,0.63
6.854,5.07,9.96,1.19
6.868,5.07,9.96,1.19
6.87,5.07,9.96,1.19
6.912,6.53,-2.77,0.21
6.931,6.53,-2.77,0.21
6.935,6.53,-2.77,0.21
6.936,6.53,-2.77,0.21
6.97,7.32,-1.96,3.82
6.992,7.32,-1.96,3.82
6.999,7.32,-1.96,3.82
7.034,-5.42,-4.08,-1.33
7.049,-5.42,-4.08,-1.33
7.052,-5.42,-4.08,-1.33
7.095,-2.9,-2.81,1.47
7.16,-2.9,-2.81,1.47
7.164,-2.9,-2.81,1.47
7.167,-2.9,-2.81,1.47
7.169,-4.66,0.97,1.62
7.171,-4.66,0.97,1.62
7.172,-4.66,0.97,1.62
7.212,-5.22,3.11,1.81
7.248,-5.22,3.11,1.81
7.251,-5.22,3.11,1.81
7.272,-6.32,2.57,0.96
7.291,-6.32,2.57,0.96
7.294,-6.32,2.57,0.96
7.295,-6.32,2.57,0.96
7.332,-1.21,3.06,-3.06
7.35,-1.21,3.06,-3.06
7.353,-1.21,3.06,-3.06
7.4,-6.71,2.93,-12.57
7.411,-6.71,2.93,-12.57
7.413,-6.71,2.93,-12.57
7.454,2.22,2.36,2.48
7.47,2.22,2.36,2.48
7.472,2.22,2.36,2.48
7.474,2.22,2.36,2.48
7.511,-3.31,0.03,-1.08
7.532,-3.31,0.03,-1.08
7.538,-3.31,0.03,-1.08
7.573,2.43,0.65,0.12
7.614,2.43,0.65,0.12
7.617,2.43,0.65,0.12
7.663,0.43,-0.07,-0.85
7.667,0.43,-0.07,-0.85
7.669,0.43,-0.07,-0.85
7.67,0.43,-0.07,-0.85
7.694,1.21,0.12,-0.25
7.717,1.21,0.12,-0.25
7.72,1.21,0.12,-0.25
7.752,1.87,0.28,-0.74
7.77,1.87,0.28,-0.74
7.772,1.87,0.28,-0.74
7.811,-0.39,0.02,-1.24
7.833,-0.39,0.02,-1.24
7.836,-0.39,0.02,-1.24
7.838,-0.39,0.02,-1.24
7.873,0.76,0.42,0.48
7.909,0.76,0.42,0.48
7.911,0.76,0.42,0.48
7.963,-0.42,0.12,0.28
7.968,-0.42,0.12,0.28
7.971,-0.42,0.12,0.28
7.992,-0.75,0.07,-2
8.027,-0.75,0.07,-2
8.031,-0.75,0.07,-2
8.036,-0.75,0.07,-2
8.056,-0.56,1.31,0.21
8.069,-0.56,1.31,0.21
8.072,-0.56,1.31,0.21
8.111,1.29,-0.74,-0.28
8.13,1.29,-0.74,-0.28
8.132,1.29,-0.74,-0.28
8.174,-0.49,-1.03,1.87
8.206,-0.49,-1.03,1.87
8.209,-0.49,-1.03,1.87
8.21,-0.49,-1.03,1.87
8.253,1.65,-0.58,1.85
8.258,1.65,-0.58,1.85
8.259,1.65,-0.58,1.85
8.315,-0.9,1.01,-0.13
8.318,-0.9,1.01,-0.13
8.32,-0.9,1.01,-0.13
8.351,-0.24,0.11,-0.78
8.371,-0.24,0.11,-0.78
8.373,-0.24,0.11,-0.78
8.374,-0.24,0.11,-0.78
8.413,0.17,-0.8,-0.97
8.429,0.17,-0.8,-0.97
8.431,0.17,-0.8,-0.97
8.474,-2.69,-1.65,-3.64
8.515,-2.69,-1.65,-3.64
8.519,-2.69,-1.65,-3.64
8.552,4.6,-0.05,1.69
8.554,4.6,-0.05,1.69
8.557,4.6,-0.05,1.69
8.558,4.6,-0.05,1.69
8.597,3.52,3.3,-2.67
8.609,3.52,3.3,-2.67
8.611,3.52,3.3,-2.67
8.655,-3.17,-1.08,-0.56
8.676,-3.17,-1.08,-0.56
8.687,-3.17,-1.08,-0.56
8.715,-2.4,-0.16,-0.24
8.75,-2.4,-0.16,-0.24
8.753,-2.4,-0.16,-0.24
8.755,-2.4,-0.16,-0.24
8.84,-0.25,0.02,-0.3
8.844,-0.25,0.02,-0.3
8.847,-0.25,0.02,-0.3
8.851,-0.09,0.23,-0.11
8.854,-0.09,0.23,-0.11
8.857,-0.09,0.23,-0.11
8.919,0.36,0.3,0.5
8.922,0.36,0.3,0.5
8.924,0.36,0.3,0.5
8.926,0.36,0.3,0.5
8.97,0.15,0.18,0.35
8.972,0.15,0.18,0.35
8.974,0.15,0.18,0.35
9.015,0.85,0.31,-0.48
9.03,0.85,0.31,-0.48
9.033,0.85,0.31,-0.48
9.074,1.44,0.16,0.84
9.111,1.44,0.16,0.84
9.114,1.44,0.16,0.84
9.116,1.44,0.16,0.84
9.172,0.52,0.38,-0.13
9.181,0.52,0.38,-0.13
9.189,0.52,0.38,-0.13
9.193,-0.87,0.68,-2.03
9.212,-0.87,0.68,-2.03
9.214,-0.87,0.68,-2.03
9.252,1.1,1.46,-0.62
9.272,1.1,1.46,-0.62
9.275,1.1,1.46,-0.62
9.278,1.1,1.46,-0.62
9.32,2.29,5.12,1.39
9.333,2.29,5.12,1.39
9.335,2.29,5.12,1.39
9.374,6.69,9.01,2.97
9.412,6.69,9.01,2.97
9.415,6.69,9.01,2.97
9.471,2.66,-0.11,3.6
9.474,2.66,-0.11,3.6
9.475,2.66,-0.11,3.6
9.478,2.66,-0.11,3.6
9.494,5.4,-4.2,5.98
9.519,5.4,-4.2,5.98
9.523,5.4,-4.2,5.98
9.556,-1.22,-4.21,1.48
9.572,-1.22,-4.21,1.48
9.575,-1.22,-4.21,1.48
9.647,-3.42,-1.16,0.93
9.652,-3.42,-1.16,0.93
9.654,-3.42,-1.16,0.93
9.664,-3.42,-1.16,0.93
9.679,-5.01,4.2,-0.9
9.692,-5.01,4.2,-0.9
9.695,-5.01,4.2,-0.9
9.733,-6.62,5.03,-1.71
9.764,-6.62,5.03,-1.71
9.767,-6.62,5.03,-1.71
9.804,-4.77,1.44,-1.56
9.811,-4.77,1.44,-1.56
9.816,-4.77,1.44,-1.56
9.824,-4.77,1.44,-1.56
9.853,5.99,3.99,6.98
9.872,5.99,3.99,6.98
9.878,5.99,3.99,6.98
9.933,-3.39,1.07,-17.87
9.941,-3.39,1.07,-17.87
9.944,-3.39,1.07,-17.87
9.985,1.28,1.03,-4.72
9.992,1.28,1.03,-4.72
9.993,1.28,1.03,-4.72
9.995,1.28,1.03,-4.72
10.035,0.54,0.73,0.07
10.051,0.54,0.73,0.07
10.052,0.54,0.73,0.07
10.104,2.87,0.78,1
10.111,2.87,0.78,1
10.117,2.87,0.78,1
10.154,-0.21,-0.03,-0.65
10.172,-0.21,-0.03,-0.65
10.174,-0.21,-0.03,-0.65
10.175,-0.21,-0.03,-0.65
10.213,2.04,0.47,0.66
10.294,2.04,0.47,0.66
10.303,2.04,0.47,0.66
10.308,2.21,0.36,0.29
10.311,2.21,0.36,0.29
10.313,2.21,0.36,0.29
10.334,1.01,1.1,-0.3
10.373,1.01,1.1,-0.3
10.382,1.01,1.1,-0.3
10.384,1.01,1.1,-0.3
10.412,1.82,1.77,2.32
10.414,1.82,1.77,2.32
10.416,1.82,1.77,2.32
10.456,0.9,4.92,1.3
10.495,0.9,4.92,1.3
10.498,0.9,4.92,1.3
10.514,5.45,8.72,0.06
10.541,5.45,8.72,0.06
10.543,5.45,8.72,0.06
10.545,5.45,8.72,0.06
10.648,9.28,-1.51,1.89
10.654,9.28,-1.51,1.89
10.661,9.28,-1.51,1.89
10.665,4.88,-4.16,6.32
10.671,4.88,-4.16,6.32
10.675,4.88,-4.16,6.32
10.708,-0.75,-2.96,0.71
10.712,-0.75,-2.96,0.71
10.713,-0.75,-2.96,0.71
10.715,-0.75,-2.96,0.71
10.754,-6.39,-1.82,-0.41
10.776,-6.39,-1.82,-0.41
10.779,-6.39,-1.82,-0.41
10.813,-7.99,2.57,-1.23
10.853,-7.99,2.57,-1.23
10.856,-7.99,2.57,-1.23
10.918,-7.45,5.78,0.8
10.922,-7.45,5.78,0.8
10.925,-7.45,5.78,0.8
10.927,-7.45,5.78,0.8
10.935,-7.26,1.72,-0.34
10.963,-7.26,1.72,-0.34
10.965,-7.26,1.72,-0.34
11.005,14.23,8.08,12.2
11.012,14.23,8.08,12.2
11.015,14.23,8.08,12.2
11.061,-5.32,-1.4,-17
11.077,-5.32,-1.4,-17
11.079,-5.32,-1.4,-17
11.081,-5.32,-1.4,-17
11.143,2.81,0.6,1.89
11.147,2.81,0.6,1.89
11.149,2.81,0.6,1.89
11.177,-1.5,0.4,-0.56
11.201,-1.5,0.4,-0.56
11.204,-1.5,0.4,-0.56
11.242,4.47,1.85,0.46
11.253,4.47,1.85,0.46
11.255,4.47,1.85,0.46
11.257,4.47,1.85,0.46
11.295,1.53,0.01,-0.15
11.37,1.53,0.01,-0.15
11.377,1.53,0.01,-0.15
11.379,2.12,0.48,0.16
11.38,2.12,0.48,0.16
11.382,2.12,0.48,0.16
11.42,2.98,1.3,0.14
11.447,2.98,1.3,0.14
11.45,2.98,1.3,0.14
11.452,2.98,1.3,0.14
11.48,1.27,1.91,-0.82
11.494,1.27,1.91,-0.82
11.498,1.27,1.91,-0.82
11.547,0.98,5,-1.22
11.552,0.98,5,-1.22
11.554,0.98,5,-1.22
11.596,3.68,10.06,-1.51
11.617,3.68,10.06,-1.51
11.62,3.68,10.06,-1.51
11.623,3.68,10.06,-1.51
11.666,6.23,-0.02,-1.83
11.672,6.23,-0.02,-1.83
11.675,6.23,-0.02,-1.83
11.715,-8.43,-3.61,-4.85
11.733,-8.43,-3.61,-4.85
11.735,-8.43,-3.61,-4.85
11.778,5.64,-6.77,-0.5
11.793,5.64,-6.77,-0.5
11.795,5.64,-6.77,-0.5
11.798,5.64,-6.77,-0.5
11.859,-6.89,-3.57,-0.24
11.863,-6.89,-3.57,-0.24
11.865,-6.89,-3.57,-0.24
11.909,-4.3,3.28,-0.16
11.917,-4.3,3.28,-0.16
11.92,-4.3,3.28,-0.16
11.954,-4.4,4.11,2.84
11.982,-4.4,4.11,2.84
11.985,-4.4,4.11,2.84
11.989,-4.4,4.11,2.84
12.015,-5.55,1.23,3.81
12.034,-5.55,1.23,3.81
12.037,-5.55,1.23,3.81
12.101,-6.41,-1.09,-2.15
12.104,-6.41,-1.09,-2.15
12.106,-6.41,-1.09,-2.15
12.161,8.82,-3.31,-2.93
12.173,8.82,-3.31,-2.93
12.176,8.82,-3.31,-2.93
12.178,8.82,-3.31,-2.93
12.196,-4.09,-2.18,-7.73
12.24,-4.09,-2.18,-7.73
12.249,-4.09,-2.18,-7.73
12.255,2.1,0.82,-1.83
12.295,2.1,0.82,-1.83
12.298,2.1,0.82,-1.83
12.333,0.32,0.24,-0.49
12.339,0.32,0.24,-0.49
12.34,0.32,0.24,-0.49
12.344,0.32,0.24,-0.49
12.377,0.25,0.04,0.24
12.402,0.25,0.04,0.24
12.405,0.25,0.04,0.24
12.459,2.13,0.85,0.15
12.465,2.13,0.85,0.15
12.472,2.13,0.85,0.15
12.5,2.73,0.67,0.43
12.559,2.73,0.67,0.43
12.565,2.73,0.67,0.43
12.567,2.73,0.67,0.43
12.569,0.73,1.13,-0.51
12.574,0.73,1.13,-0.51
12.577,0.73,1.13,-0.51
12.615,1.77,2.28,-1.03
12.635,1.77,2.28,-1.03
12.638,1.77,2.28,-1.03
12.69,2.01,6.22,1.54
12.694,2.01,6.22,1.54
12.7,2.01,6.22,1.54
12.702,2.01,6.22,1.54
12.757,7.74,6.7,-2.51
12.761,7.74,6.7,-2.51
12.766,7.74,6.7,-2.51
12.814,1.42,-1.11,-1.03
12.828,1.42,-1.11,-1.03
12.83,1.42,-1.11,-1.03
12.885,4.52,-5.24,3.67
12.891,4.52,-5.24,3.67
12.893,4.52,-5.24,3.67
12.895,4.52,-5.24,3.67
12.95,-0.27,-4.33,-0.3
12.953,-0.27,-4.33,-0.3
12.955,-0.27,-4.33,-0.3
13.01,-2.57,-1.71,0
13.014,-2.57,-1.71,0
13.017,-2.57,-1.71,0
13.043,-6.59,-0.64,-1.1
13.086,-6.59,-0.64,-1.1
13.09,-6.59,-0.64,-1.1
13.092,-6.59,-0.64,-1.1
13.097,-10.43,4.06,-0.98
13.114,-10.43,4.06,-0.98
13.116,-10.43,4.06,-0.98
13.156,-1.35,0.22,2.04
13.193,-1.35,0.22,2.04
13.201,-1.35,0.22,2.04
13.237,7.62,1.75,5.63
13.24,7.62,1.75,5.63
13.242,7.62,1.75,5.63
13.244,7.62,1.75,5.63
13.285,-12.95,0.12,13.38
13.295,-12.95,0.12,13.38
13.297,-12.95,0.12,13.38
13.337,8.37,4.5,2.99
13.357,8.37,4.5,2.99
13.361,8.37,4.5,2.99
13.403,-3.79,-0.44,-2.27
13.418,-3.79,-0.44,-2.27
13.42,-3.79,-0.44,-2.27
13.422,-3.79,-0.44,-2.27
13.474,2.55,0.12,0.5
13.477,2.55,0.12,0.5
13.48,2.55,0.12,0.5
13.528,1.66,0.08,-0.42
13.535,1.66,0.08,-0.42
13.538,1.66,0.08,-0.42
13.576,1.62,0.1,0.18
13.597,1.62,0.1,0.18
13.599,1.62,0.1,0.18
13.6,1.62,0.1,0.18
13.636,2.07,0.34,0.04
13.699,2.07,0.34,0.04
13.704,2.07,0.34,0.04
13.706,0.19,0.61,-0.75
13.715,0.19,0.61,-0.75
13.717,0.19,0.61,-0.75
13.757,0.97,0.82,-0.24
13.807,0.97,0.82,-0.24
13.809,0.97,0.82,-0.24
13.814,0.97,0.82,-0.24
13.817,-0.42,0.86,-1.25
13.84,-0.42,0.86,-1.25
13.848,-0.42,0.86,-1.25
13.888,0.25,0.66,-0.21
13.895,0.25,0.66,-0.21
13.898,0.25,0.66,-0.21
13.943,-1.58,-1.7,-1.53
13.993,-1.58,-1.7,-1.53
13.996,-1.58,-1.7,-1.53
13.999,-1.58,-1.7,-1.53
14,0.58,-2.82,0.37
14.016,0.58,-2.82,0.37
14.018,0.58,-2.82,0.37
14.058,-0.92,0.23,0.68
14.09,-0.92,0.23,0.68
14.094,-0.92,0.23,0.68
14.12,-0.15,0.4,-0.6
14.15,-0.15,0.4,-0.6
14.153,-0.15,0.4,-0.6
14.155,-0.15,0.4,-0.6
14.21,1.05,0.61,-2.15
14.213,1.05,0.61,-2.15
14.215,1.05,0.61,-2.15
14.237,1.21,-1.03,-3.67
14.255,1.21,-1.03,-3.67
14.258,1.21,-1.03,-3.67
14.297,2.16,-0.75,-3.49
14.324,2.16,-0.75,-3.49
14.333,2.16,-0.75,-3.49
14.335,2.16,-0.75,-3.49
14.368,4.3,-0.93,-0.87
14.379,4.3,-0.93,-0.87
14.382,4.3,-0.93,-0.87
14.426,-7.1,-2.08,-8.2
14.435,-7.1,-2.08,-8.2
14.437,-7.1,-2.08,-8.2
14.479,4.16,1.7,1.39
14.514,4.16,1.7,1.39
14.517,4.16,1.7,1.39
14.52,4.16,1.7,1.39
14.584,-2.65,-0.24,-2.22
14.587,-2.65,-0.24,-2.22
14.592,-2.65,-0.24,-2.22
14.6,-1.06,0.21,1.46
14.637,-1.06,0.21,1.46
14.64,-1.06,0.21,1.46
14.699,0.71,0.44,0.34
14.702,0.71,0.44,0.34
14.704,0.71,0.44,0.34
14.705,0.71,0.44,0.34
14.718,0.22,0.26,0.16
14.745,0.22,0.26,0.16
14.748,0.22,0.26,0.16
14.831,0.01,0.3,0.36
14.836,0.01,0.3,0.36
14.841,0.01,0.3,0.36
14.844,-0.55,0.32,0.65
14.859,-0.55,0.32,0.65
14.861,-0.55,0.32,0.65
14.863,-0.55,0.32,0.65
14.937,1.98,0.59,-1
14.943,1.98,0.59,-1
14.945,1.98,0.59,-1
14.985,0.2,0.58,1.1
14.988,0.2,0.58,1.1
14.99,0.2,0.58,1.1
15.037,-0.07,1.36,2.19
15.039,-0.07,1.36,2.19
15.041,-0.07,1.36,2.19
15.043,-0.07,1.36,2.19
15.082,0.29,0.81,-0.73
15.097,0.29,0.81,-0.73
15.1,0.29,0.81,-0.73
15.142,0.95,4.39,2.14
15.155,0.95,4.39,2.14
15.158,0.95,4.39,2.14
15.218,2.72,6.46,-1.43
15.223,2.72,6.46,-1.43
15.227,2.72,6.46,-1.43
15.229,2.72,6.46,-1.43
15.26,3.97,-2.63,-0.23
15.281,3.97,-2.63,-0.23
15.284,3.97,-2.63,-0.23
15.329,3.46,-2.83,3.45
15.349,3.46,-2.83,3.45
15.351,3.46,-2.83,3.45
15.378,2.11,-3.93,3.51
15.398,2.11,-3.93,3.51
15.401,2.11,-3.93,3.51
15.403,2.11,-3.93,3.51
15.438,-6.64,-1.28,0.5
15.458,-6.64,-1.28,0.5
15.461,-6.64,-1.28,0.5
15.511,-3.96,1.62,0.12
15.515,-3.96,1.62,0.12
15.517,-3.96,1.62,0.12
15.573,-4.65,4.87,0.7
15.577,-4.65,4.87,0.7
15.579,-4.65,4.87,0.7
15.581,-4.65,4.87,0.7
15.62,-6.27,1.35,-0.32
15.656,-6.27,1.35,-0.32
15.659,-6.27,1.35,-0.32
15.678,-5.24,-1.24,-3.27
15.698,-5.24,-1.24,-3.27
15.701,-5.24,-1.24,-3.27
15.748,15.75,11.48,13.01
15.758,15.75,11.48,13.01
15.76,15.75,11.48,13.01
15.762,15.75,11.48,13.01
15.814,-14.39,-4.4,15.26
15.818,-14.39,-4.4,15.26
15.82,-14.39,-4.4,15.26
15.859,6.65,3.02,0.8
15.877,6.65,3.02,0.8
15.879,6.65,3.02,0.8
15.943,-0.45,0.75,-1.03
15.946,-0.45,0.75,-1.03
15.949,-0.45,0.75,-1.03
15.95,-0.45,0.75,-1.03
16.042,1.86,0.68,0.11
16.048,1.86,0.68,0.11
16.05,1.86,0.68,0.11
16.052,0.85,0.58,-0.26
16.058,0.85,0.58,-0.26
16.061,0.85,0.58,-0.26
16.167,0.12,0.55,-0.15
16.174,0.12,0.55,-0.15
16.187,0.12,0.55,-0.15
16.189,0.12,0.55,-0.15
16.197,2.47,0.98,-0.08
16.198,2.47,0.98,-0.08
16.2,2.47,0.98,-0.08
16.235,0.68,0.69,-0.47
16.238,0.68,0.69,-0.47
16.24,0.68,0.69,-0.47
16.283,1.76,1.56,0.56
16.336,1.76,1.56,0.56
16.339,1.76,1.56,0.56
16.34,1.76,1.56,0.56
16.342,0.78,3.05,-0.28
16.357,0.78,3.05,-0.28
16.359,0.78,3.05,-0.28
16.399,1.85,5.13,-2.78
16.452,1.85,5.13,-2.78
16.461,1.85,5.13,-2.78
16.467,7.4,3.23,1.64
16.504,7.4,3.23,1.64
16.511,7.4,3.23,1.64
16.515,7.4,3.23,1.64
16.523,-6.15,0.87,-3.76
16.558,-6.15,0.87,-3.76
16.572,-6.15,0.87,-3.76
16.61,7.77,-3.35,0.18
16.612,7.77,-3.35,0.18
16.616,7.77,-3.35,0.18
16.65,-5.87,-5,-0.06
16.662,-5.87,-5,-0.06
16.664,-5.87,-5,-0.06
16.665,-5.87,-5,-0.06
16.702,-5.33,-0.61,-0.07
16.743,-5.33,-0.61,-0.07
16.751,-5.33,-0.61,-0.07
16.759,-6.06,4.74,-0.48
16.788,-6.06,4.74,-0.48
16.79,-6.06,4.74,-0.48
16.839,-8.56,3.52,-3.25
16.842,-8.56,3.52,-3.25
16.843,-8.56,3.52,-3.25
16.845,-8.56,3.52,-3.25
16.883,-5.81,-0.04,0
16.898,-5.81,-0.04,0
16.9,-5.81,-0.04,0
16.941,13.19,13.77,9.33
16.98,13.19,13.77,9.33
16.983,13.19,13.77,9.33
17,-7.74,3.11,-15.01
17.023,-7.74,3.11,-15.01
17.03,-7.74,3.11,-15.01
17.035,-7.74,3.11,-15.01
17.086,2.25,-0.55,-1.52
17.089,2.25,-0.55,-1.52
17.091,2.25,-0.55,-1.52
17.153,1.44,0.59,0.13
17.157,1.44,0.59,0.13
17.16,1.44,0.59,0.13
17.183,2.46,0.95,0.38
17.205,2.46,0.95,0.38
17.207,2.46,0.95,0.38
17.209,2.46,0.95,0.38
17.286,0.61,0.15,0.02
17.289,0.61,0.15,0.02
17.292,0.61,0.15,0.02
17.301,2.18,0.56,0.18
17.319,2.18,0.56,0.18
17.323,2.18,0.56,0.18
17.361,3.41,0.68,-0.16
17.418,3.41,0.68,-0.16
17.422,3.41,0.68,-0.16
17.424,3.41,0.68,-0.16
17.425,0.86,1.03,1.71
17.472,0.86,1.03,1.71
17.475,0.86,1.03,1.71
17.485,0.88,1.47,0.82
17.508,0.88,1.47,0.82
17.513,0.88,1.47,0.82
17.551,1.94,6.92,-0.26
17.56,1.94,6.92,-0.26
17.562,1.94,6.92,-0.26
17.564,1.94,6.92,-0.26
17.6,4.47,8.57,0.08
17.619,4.47,8.57,0.08
17.625,4.47,8.57,0.08
17.664,11.24,-1.88,2.97
17.698,11.24,-1.88,2.97
17.702,11.24,-1.88,2.97
17.775,1.82,-7.98,2.52
17.782,1.82,-7.98,2.52
17.787,1.82,-7.98,2.52
17.79,1.82,-7.98,2.52
17.794,-1.36,-1.77,-0.58
17.8,-1.36,-1.77,-0.58
17.807,-1.36,-1.77,-0.58
17.841,-4.24,-1.71,-1.54
17.917,-4.24,-1.71,-1.54
17.922,-4.24,-1.71,-1.54
17.924,-5.31,1.21,-0.28
17.93,-5.31,1.21,-0.28
17.932,-5.31,1.21,-0.28
17.941,-5.31,1.21,-0.28
17.962,-8.31,5.91,0.43
17.999,-8.31,5.91,0.43
18.005,-8.31,5.91,0.43
18.056,-7.22,0.95,2.38
18.059,-7.22,0.95,2.38
18.061,-7.22,0.95,2.38
18.084,7.99,10.95,13
18.113,7.99,10.95,13
18.122,7.99,10.95,13
18.123,7.99,10.95,13
18.179,-10.08,5.45,-8.67
18.183,-10.08,5.45,-8.67
18.186,-10.08,5.45,-8.67
18.202,7.06,0.82,6.03
18.231,7.06,0.82,6.03
18.233,7.06,0.82,6.03
18.303,-1.71,0.01,-1.78
18.312,-1.71,0.01,-1.78
18.317,-1.71,0.01,-1.78
18.322,-1.71,0.01,-1.78
18.328,1.52,0.78,1.03
18.36,1.52,0.78,1.03
18.364,1.52,0.78,1.03
18.403,2.15,0.32,0.16
18.407,2.15,0.32,0.16
18.409,2.15,0.32,0.16
18.441,1.63,0.39,0.88
18.497,1.63,0.39,0.88
18.5,1.63,0.39,0.88
18.501,1.63,0.39,0.88
18.503,2.01,0.85,0.35
18.545,2.01,0.85,0.35
18.548,2.01,0.85,0.35
18.565,0.85,1.22,-0.68
18.595,0.85,1.22,-0.68
18.608,0.85,1.22,-0.68
18.681,1.69,2.52,-0.04
18.684,1.69,2.52,-0.04
18.686,1.69,2.52,-0.04
18.688,1.69,2.52,-0.04
18.691,2.35,5.81,-0.08
18.699,2.35,5.81,-0.08
18.702,2.35,5.81,-0.08
18.741,3.85,1.78,1.54
18.799,3.85,1.78,1.54
18.802,3.85,1.78,1.54
18.804,-5.57,-4.71,-5.02
18.821,-5.57,-4.71,-5.02
18.823,-5.57,-4.71,-5.02
18.825,-5.57,-4.71,-5.02
18.895,4.08,-4.83,-0.24
18.898,4.08,-4.83,-0.24
18.9,4.08,-4.83,-0.24
18.939,-3.81,-1.92,-1.84
18.944,-3.81,-1.92,-1.84
18.947,-3.81,-1.92,-1.84
18.981,-2.79,-0.76,-1.23
19.024,-2.79,-0.76,-1.23
19.029,-2.79,-0.76,-1.23
19.032,-2.79,-0.76,-1.23
19.046,-3.46,3.14,-1.8
19.063,-3.46,3.14,-1.8
19.068,-3.46,3.14,-1.8
19.102,-3.56,-0.75,-4.68
19.141,-3.56,-0.75,-4.68
19.144,-3.56,-0.75,-4.68
19.165,-8.71,-2.69,-3.69
19.182,-8.71,-2.69,-3.69
19.184,-8.71,-2.69,-3.69
19.185,-8.71,-2.69,-3.69
19.227,-2.04,0.68,-3.39
19.24,-2.04,0.68,-3.39
19.242,-2.04,0.68,-3.39
19.287,5.9,4.18,4.05
19.3,5.9,4.18,4.05
19.306,5.9,4.18,4.05
19.342,-3.01,-1.09,0.31
19.397,-3.01,-1.09,0.31
19.4,-3.01,-1.09,0.31
19.403,-3.01,-1.09,0.31
19.404,0.84,0.11,-0.68
19.421,0.84,0.11,-0.68
19.423,0.84,0.11,-0.68
19.52,0.17,0.34,0.51
19.524,0.17,0.34,0.51
19.529,0.17,0.34,0.51
19.531,-0.48,0.03,-0.27
19.582,-0.48,0.03,-0.27
19.586,-0.48,0.03,-0.27
19.588,-0.48,0.03,-0.27
19.59,0.6,0.26,-0.01
19.6,0.6,0.26,-0.01
19.602,0.6,0.26,-0.01
19.645,0.34,0.19,-0.31
19.66,0.34,0.19,-0.31
19.661,0.34,0.19,-0.31
19.709,-0.2,0.02,-0.31
19.722,-0.2,0.02,-0.31
19.723,-0.2,0.02,-0.31
19.725,-0.2,0.02,-0.31
19.767,-0.45,0.11,-0.67
19.843,-0.45,0.11,-0.67
19.847,-0.45,0.11,-0.67
19.855,0.01,0.7,-0.77
19.857,0.01,0.7,-0.77
19.86,0.01,0.7,-0.77
19.895,2.6,2.41,4.56
19.903,2.6,2.41,4.56
19.905,2.6,2.41,4.56
19.907,2.6,2.41,4.56
19.955,3.23,3.52,-1.85
19.96,3.23,3.52,-1.85
19.964,3.23,3.52,-1.85
20.032,1.03,0.47,-3.12
20.034,1.03,0.47,-3.12
20.036,1.03,0.47,-3.12
20.083,-1.72,-0.46,-0.01
20.086,-1.72,-0.46,-0.01
20.088,-1.72,-0.46,-0.01
20.089,-1.72,-0.46,-0.01
20.147,5.28,-2.93,-5.51
20.15,5.28,-2.93,-5.51
20.153,5.28,-2.93,-5.51
20.207,-6.42,-3.3,-4.79
20.209,-6.42,-3.3,-4.79
20.211,-6.42,-3.3,-4.79
20.254,-0.49,-2.83,-1.93
20.261,-0.49,-2.83,-1.93
20.263,-0.49,-2.83,-1.93
20.264,-0.49,-2.83,-1.93
20.318,-2.65,-0.22,-2.02
20.322,-2.65,-0.22,-2.02
20.324,-2.65,-0.22,-2.02
20.368,-5.51,-1.12,-3.19
20.38,-5.51,-1.12,-3.19
20.382,-5.51,-1.12,-3.19
20.441,-8.61,1.31,-2.9
20.45,-8.61,1.31,-2.9
20.453,-8.61,1.31,-2.9
20.46,-8.61,1.31,-2.9
20.493,-5.61,1.83,1.5
20.559,-5.61,1.83,1.5
20.562,-5.61,1.83,1.5
20.567,-6.03,1.08,2.8
20.569,-6.03,1.08,2.8
20.571,-6.03,1.08,2.8
20.65,8.76,1.12,2.94
20.653,8.76,1.12,2.94
20.655,8.76,1.12,2.94
20.657,8.76,1.12,2.94
20.668,-6.57,-1.46,-13.01
20.718,-6.57,-1.46,-13.01
20.722,-6.57,-1.46,-13.01
20.723,5.26,1.91,8.23
20.741,5.26,1.91,8.23
20.744,5.26,1.91,8.23
20.856,0.05,-0.53,-1.46
20.861,0.05,-0.53,-1.46
20.864,0.05,-0.53,-1.46
20.87,0.05,-0.53,-1.46
20.879,-1.34,-0.23,-0.49
20.881,-1.34,-0.23,-0.49
20.883,-1.34,-0.23,-0.49
20.91,0.91,0.11,-0.37
20.924,0.91,0.11,-0.37
20.927,0.91,0.11,-0.37
20.964,1.39,0.6,-0.02
21.046,1.39,0.6,-0.02
21.05,1.39,0.6,-0.02
21.057,1.39,0.6,-0.02
21.059,2.39,0.83,0.18
21.06,2.39,0.83,0.18
21.062,2.39,0.83,0.18
21.09,1.8,1.29,0.53
21.181,1.8,1.29,0.53
21.189,1.8,1.29,0.53
21.197,2.25,4.48,-0.83
21.199,2.25,4.48,-0.83
21.201,2.25,4.48,-0.83
21.202,2.25,4.48,-0.83
21.204,-0.55,2.68,-0.69
21.228,-0.55,2.68,-0.69
21.231,-0.55,2.68,-0.69
21.287,1.91,0.88,-0.61
21.291,1.91,0.88,-0.61
21.292,1.91,0.88,-0.61
21.345,-2.1,-6.5,-0.48
21.349,-2.1,-6.5,-0.48
21.351,-2.1,-6.5,-0.48
21.353,-2.1,-6.5,-0.48
21.383,2.21,-4.61,2.36
21.453,2.21,-4.61,2.36
21.455,2.21,-4.61,2.36
21.458,-4.36,-1.47,2.51
21.461,-4.36,-1.47,2.51
21.463,-4.36,-1.47,2.51
21.51,-4.09,0.68,0.03
21.524,-4.09,0.68,0.03
21.526,-4.09,0.68,0.03
21.528,-4.09,0.68,0.03
21.565,-4.69,2.06,0.88
21.622,-4.69,2.06,0.88
21.626,-4.69,2.06,0.88
21.631,-1.72,-0.66,3.5
21.643,-1.72,-0.66,3.5
21.646,-1.72,-0.66,3.5
21.684,-4.06,-0.72,-1.21
21.764,-4.06,-0.72,-1.21
21.767,-4.06,-0.72,-1.21
21.773,-4.06,-0.72,-1.21
21.775,11.87,9.46,11.39
21.777,11.87,9.46,11.39
21.782,11.87,9.46,11.39
21.827,-7.7,4.68,9.79
21.831,-7.7,4.68,9.79
21.833,-7.7,4.68,9.79
21.883,0.01,0.84,-0.46
21.889,0.01,0.84,-0.46
21.892,0.01,0.84,-0.46
21.894,0.01,0.84,-0.46
21.951,1.84,0.38,0.4
21.956,1.84,0.38,0.4
21.958,1.84,0.38,0.4
21.988,0.81,0.17,-0.03
22.002,0.81,0.17,-0.03
22.005,0.81,0.17,-0.03
22.046,0.67,0.33,0.48
22.064,0.67,0.33,0.48
22.068,0.67,0.33,0.48
22.073,0.67,0.33,0.48
22.105,1.66,0.31,-0.1
22.203,1.66,0.31,-0.1
22.209,1.66,0.31,-0.1
22.211,0.06,0.04,-0.26
22.213,0.06,0.04,-0.26
22.215,0.06,0.04,-0.26
22.258,1.26,0.44,0.4
22.26,1.26,0.44,0.4
22.262,1.26,0.44,0.4
22.263,1.26,0.44,0.4
22.294,2.07,0.57,0.45
22.303,2.07,0.57,0.45
22.304,2.07,0.57,0.45
22.383,1.34,0.31,-2.65
22.389,1.34,0.31,-2.65
22.391,1.34,0.31,-2.65
22.404,2.98,4.31,-0.85
22.427,2.98,4.31,-0.85
22.43,2.98,4.31,-0.85
22.432,2.98,4.31,-0.85
22.5,1.48,5.79,-2.06
22.502,1.48,5.79,-2.06
22.504,1.48,5.79,-2.06
22.53,2.78,-0.34,-1.78
22.618,2.78,-0.34,-1.78
22.62,2.78,-0.34,-1.78
22.627,-2.06,-5.67,-5.35
22.629,-2.06,-5.67,-5.35
22.63,-2.06,-5.67,-5.35
22.632,-2.06,-5.67,-5.35
22.656,5.52,-4.97,4.13
22.662,5.52,-4.97,4.13
22.664,5.52,-4.97,4.13
22.747,-4.44,-3.04,-0.64
22.75,-4.44,-3.04,-0.64
22.752,-4.44,-3.04,-0.64
22.803,-4.6,-1.17,1.57
22.805,-4.6,-1.17,1.57
22.809,-4.6,-1.17,1.57
22.811,-4.6,-1.17,1.57
22.834,-1,4.15,2.21
22.906,-1,4.15,2.21
22.909,-1,4.15,2.21
22.911,-3.27,1.65,-0.15
22.912,-3.27,1.65,-0.15
22.914,-3.27,1.65,-0.15
22.948,-3.88,0.46,-1.18
23.015,-3.88,0.46,-1.18
23.018,-3.88,0.46,-1.18
23.02,-3.88,0.46,-1.18
23.022,9.6,2.23,5.79
23.023,9.6,2.23,5.79
23.026,9.6,2.23,5.79
23.08,-0.25,-0.01,-0.23
23.085,-0.25,-0.01,-0.23
23.087,-0.25,-0.01,-0.23
23.126,1.22,0.69,1.46
23.188,1.22,0.69,1.46
23.193,1.22,0.69,1.46
23.194,1.22,0.69,1.46
23.196,0.58,0.78,0.92
23.242,0.58,0.78,0.92
23.252,0.58,0.78,0.92
23.254,1.58,0.34,-0.22
23.266,1.58,0.34,-0.22
23.269,1.58,0.34,-0.22
23.305,1.91,0.11,0.75
23.371,1.91,0.11,0.75
23.375,1.91,0.11,0.75
23.377,1.91,0.11,0.75
23.38,0.43,-0.15,-0.09
23.384,0.43,-0.15,-0.09
23.386,0.43,-0.15,-0.09
23.464,-0.03,0.07,0.49
23.469,-0.03,0.07,0.49
23.471,-0.03,0.07,0.49
23.538,0.59,0.37,0.03
23.54,0.59,0.37,0.03
23.542,0.59,0.37,0.03
23.548,0.59,0.37,0.03
23.55,0.13,0.18,0.09
23.59,0.13,0.18,0.09
23.592,0.13,0.18,0.09
23.605,0.47,0.34,0.04
23.656,0.47,0.34,0.04
23.659,0.47,0.34,0.04
23.7,0.22,-0.05,0.16
23.703,0.22,-0.05,0.16
23.704,0.22,-0.05,0.16
23.705,0.22,-0.05,0.16
23.732,0.13,0.03,-0.68
23.75,0.13,0.03,-0.68
23.753,0.13,0.03,-0.68
23.803,0.36,0.11,0.24
23.807,0.36,0.11,0.24
23.809,0.36,0.11,0.24
23.847,0.05,-0.01,0.13
23.881,0.05,-0.01,0.13
23.884,0.05,-0.01,0.13
23.886,0.05,-0.01,0.13
23.934,0.01,0.11,-0.05
23.937,0.01,0.11,-0.05
23.942,0.01,0.11,-0.05
23.997,-0.29,-0.12,0.05
24,-0.29,-0.12,0.05
24.002,-0.29,-0.12,0.05
24.063,-0.05,-0.22,0.08
24.067,-0.05,-0.22,0.08
24.068,-0.05,-0.22,0.08
24.07,-0.05,-0.22,0.08
24.088,0.09,0.02,-0.19
24.116,0.09,0.02,-0.19
24.119,0.09,0.02,-0.19
24.183,0.28,0.07,0.16
24.185,0.28,0.07,0.16
24.187,0.28,0.07,0.16
24.22,-0.08,-0.1,-0.22
24.225,-0.08,-0.1,-0.22
24.228,-0.08,-0.1,-0.22
24.231,-0.08,-0.1,-0.22
24.293,0.47,0.09,0.08
24.296,0.47,0.09,0.08
24.3,0.47,0.09,0.08
24.338,0.07,0.1,0.01
24.359,0.07,0.1,0.01
24.361,0.07,0.1,0.01
24.412,0.03,0.06,-0.02
24.417,0.03,0.06,-0.02
24.419,0.03,0.06,-0.02
24.421,0.03,0.06,-0.02
24.452,-0.21,0,0.18
24.503,-0.21,0,0.18
24.507,-0.21,0,0.18
24.509,-0.05,-0.05,-0.06
24.549,-0.05,-0.05,-0.06
24.551,-0.05,-0.05,-0.06
24.569,0.45,0.11,0.02
24.601,0.45,0.11,0.02
24.604,0.45,0.11,0.02
24.606,0.45,0.11,0.02
24.66,-0.2,-0.03,-0.16
24.662,-0.2,-0.03,-0.16
24.667,-0.2,-0.03,-0.16
24.717,0.09,0.05,0.03
24.72,0.09,0.05,0.03
24.722,0.09,0.05,0.03
24.795,0.07,-0.03,-0.1
24.8,0.07,-0.03,-0.1
24.802,0.07,-0.03,-0.1
24.803,0.07,-0.03,-0.1
24.825,-0.23,-0.41,0.22
24.829,-0.23,-0.41,0.22
24.831,-0.23,-0.41,0.22
24.908,-0.06,0.05,0.05
24.912,-0.06,0.05,0.05
24.914,-0.06,0.05,0.05
24.956,0.22,0.01,-0.06
24.959,0.22,0.01,-0.06
24.961,0.22,0.01,-0.06
24.963,0.22,0.01,-0.06
24.997,0.81,0.14,0.24
25.024,0.81,0.14,0.24
25.026,0.81,0.14,0.24
25.088,-0.51,-0.44,0.06
25.091,-0.51,-0.44,0.06
25.093,-0.51,-0.44,0.06
25.124,0.31,0.29,0
25.127,0.31,0.29,0
25.129,0.31,0.29,0
25.131,0.31,0.29,0
25.222,0.33,-0.07,0.21
25.229,0.33,-0.07,0.21
25.235,0.33,-0.07,0.21
25.238,-0.16,0.02,-0.15
25.264,-0.16,0.02,-0.15
25.267,-0.16,0.02,-0.15
25.31,-0.36,-0.06,0.17
25.312,-0.36,-0.06,0.17
25.314,-0.36,-0.06,0.17
25.318,-0.36,-0.06,0.17
25.374,0.18,0.07,0.18
25.378,0.18,0.07,0.18
25.381,0.18,0.07,0.18
25.425,-0.09,0.03,-0.18
25.428,-0.09,0.03,-0.18
25.429,-0.09,0.03,-0.18
25.476,-0.27,-0.1,0.08
25.528,-0.27,-0.1,0.08
25.53,-0.27,-0.1,0.08
25.532,-0.27,-0.1,0.08
25.533,-0.36,0.09,0.27
25.578,-0.36,0.09,0.27
25.58,-0.36,0.09,0.27
