time,ax,ay,az
0.007,-0.21,0.37,-0.04
0.009,-0.21,0.37,-0.04
0.031,0.34,-0.75,0.57
0.071,0.34,-0.75,0.57
0.074,0.34,-0.75,0.57
0.106,-0.36,0.03,-0.47
0.109,-0.36,0.03,-0.47
0.11,-0.36,0.03,-0.47
0.112,-0.36,0.03,-0.47
0.185,0.38,0.18,0.2
0.188,0.38,0.18,0.2
0.19,0.38,0.18,0.2
0.223,0.35,-0.01,0.18
0.26,0.35,-0.01,0.18
0.262,0.35,-0.01,0.18
0.284,0.18,-0.09,-0.12
0.291,0.18,-0.09,-0.12
0.294,0.18,-0.09,-0.12
0.296,0.18,-0.09,-0.12
0.339,0.16,-0.03,0.14
0.35,0.16,-0.03,0.14
0.352,0.16,-0.03,0.14
0.4,0.21,-0.05,0.04
0.413,0.21,-0.05,0.04
0.416,0.21,-0.05,0.04
0.454,0.14,-0.03,0.03
0.47,0.14,-0.03,0.03
0.472,0.14,-0.03,0.03
0.473,0.14,-0.03,0.03
0.512,-0.01,-0.03,0
0.546,-0.01,-0.03,0
0.549,-0.01,-0.03,0
0.572,-0.16,-0.12,0.01
0.59,-0.16,-0.12,0.01
0.593,-0.16,-0.12,0.01
0.641,-0.27,-0.01,0.03
0.653,-0.27,-0.01,0.03
0.657,-0.27,-0.01,0.03
0.662,-0.27,-0.01,0.03
0.698,-0.09,0.19,-0.15
0.714,-0.09,0.19,-0.15
0.719,-0.09,0.19,-0.15
0.752,1.43,0.2,0.6
0.785,1.43,0.2,0.6
0.789,1.43,0.2,0.6
0.82,2.24,0.78,0.72
0.83,2.24,0.78,0.72
0.832,2.24,0.78,0.72
0.833,2.24,0.78,0.72
0.872,0.82,-0.53,0.17
0.892,0.82,-0.53,0.17
0.895,0.82,-0.53,0.17
0.952,4.49,-1.4,0.21
0.96,4.49,-1.4,0.21
0.969,4.49,-1.4,0.21
0.994,2.83,-0.5,1.09
1.035,2.83,-0.5,1.09
1.039,2.83,-0.5,1.09
1.041,2.83,-0.5,1.09
1.132,1.47,0.19,1.02
1.137,1.47,0.19,1.02
1.149,1.47,0.19,1.02
1.151,1.62,0.11,-0.04
1.154,1.62,0.11,-0.04
1.156,1.62,0.11,-0.04
1.197,1.09,0.11,-1.11
1.207,1.09,0.11,-1.11
1.222,1.09,0.11,-1.11
1.224,1.09,0.11,-1.11
1.26,0.33,-0.16,-2.12
1.262,0.33,-0.16,-2.12
1.264,0.33,-0.16,-2.12
1.293,-0.28,-0.57,-2.96
1.327,-0.28,-0.57,-2.96
1.33,-0.28,-0.57,-2.96
1.355,-1.26,-0.55,-3.62
1.377,-1.26,-0.55,-3.62
1.384,-1.26,-0.55,-3.62
1.394,-1.26,-0.55,-3.62
1.413,-1.99,-0.35,-3.77
1.453,-1.99,-0.35,-3.77
1.455,-1.99,-0.35,-3.77
1.493,-4.42,0.96,-3.68
1.496,-4.42,0.96,-3.68
1.498,-4.42,0.96,-3.68
1.545,-4.27,0.01,-2.77
1.55,-4.27,0.01,-2.77
1.557,-4.27,0.01,-2.77
1.56,-4.27,0.01,-2.77
1.596,2.84,-0.91,3.33
1.613,2.84,-0.91,3.33
1.616,2.84,-0.91,3.33
1.657,-0.35,0.95,-1.93
1.67,-0.35,0.95,-1.93
1.672,-0.35,0.95,-1.93
1.738,1.43,0.65,-0.78
1.741,1.43,0.65,-0.78
1.743,1.43,0.65,-0.78
1.749,1.43,0.65,-0.78
1.786,-0.44,-0.21,-1.34
1.793,-0.44,-0.21,-1.34
1.798,-0.44,-0.21,-1.34
1.835,-0.26,-0.03,-0.33
1.876,-0.26,-0.03,-0.33
1.879,-0.26,-0.03,-0.33
1.893,-1.16,0.14,-0.28
1.924,-1.16,0.14,-0.28
1.937,-1.16,0.14,-0.28
1.94,-1.16,0.14,-0.28
1.964,-0.65,-0.24,-0.65
1.973,-0.65,-0.24,-0.65
1.976,-0.65,-0.24,-0.65
2.031,-0.52,0.05,0.15
2.033,-0.52,0.05,0.15
2.038,-0.52,0.05,0.15
2.076,0.36,0.39,0.32
2.091,0.36,0.39,0.32
2.095,0.36,0.39,0.32
2.097,0.36,0.39,0.32
2.133,-1.11,0.46,0
2.172,-1.11,0.46,0
2.175,-1.11,0.46,0
2.195,-0.83,0.24,-0.67
2.214,-0.83,0.24,-0.67
2.217,-0.83,0.24,-0.67
2.279,-0.73,1.01,-0.95
2.283,-0.73,1.01,-0.95
2.285,-0.73,1.01,-0.95
2.287,-0.73,1.01,-0.95
2.327,-0.44,1.73,0.14
2.332,-0.44,1.73,0.14
2.334,-0.44,1.73,0.14
2.385,-2.5,4.68,-0.08
2.395,-2.5,4.68,-0.08
2.401,-2.5,4.68,-0.08
2.464,-4.25,4.87,0.75
2.471,-4.25,4.87,0.75
2.477,-4.25,4.87,0.75
2.482,-4.25,4.87,0.75
2.515,-4.59,2.84,-0.08
2.518,-4.59,2.84,-0.08
2.521,-4.59,2.84,-0.08
2.566,-3.65,2.02,-0.01
2.571,-3.65,2.02,-0.01
2.573,-3.65,2.02,-0.01
2.633,-4.69,0.98,-1.26
2.637,-4.69,0.98,-1.26
2.64,-4.69,0.98,-1.26
2.643,-4.69,0.98,-1.26
2.691,-3.19,-0.43,-1.38
2.696,-3.19,-0.43,-1.38
2.698,-3.19,-0.43,-1.38
2.734,-0.2,0.12,-2.41
2.776,-0.2,0.12,-2.41
2.778,-0.2,0.12,-2.41
2.796,2.47,0.51,-3.13
2.812,2.47,0.51,-3.13
2.815,2.47,0.51,-3.13
2.817,2.47,0.51,-3.13
2.855,5.41,-0.18,-1.5
2.888,5.41,-0.18,-1.5
2.892,5.41,-0.18,-1.5
2.939,4.78,0.46,-1.18
2.948,4.78,0.46,-1.18
2.95,4.78,0.46,-1.18
2.977,5.8,0.71,0.25
2.992,5.8,0.71,0.25
2.995,5.8,0.71,0.25
2.999,5.8,0.71,0.25
3.036,5.65,-0.68,0.58
3.081,5.65,-0.68,0.58
3.083,5.65,-0.68,0.58
3.095,8.26,6.86,-0.6
3.113,8.26,6.86,-0.6
3.116,8.26,6.86,-0.6
3.155,-0.24,-5.69,-0.46
3.213,-0.24,-5.69,-0.46
3.219,-0.24,-5.69,-0.46
3.221,-0.24,-5.69,-0.46
3.225,1.98,2.33,-1.12
3.235,1.98,2.33,-1.12
3.237,1.98,2.33,-1.12
3.276,-0.27,0.47,-0.16
3.317,-0.27,0.47,-0.16
3.32,-0.27,0.47,-0.16
3.336,0.01,-0.11,-0.12
3.368,0.01,-0.11,-0.12
3.382,0.01,-0.11,-0.12
3.384,0.01,-0.11,-0.12
3.416,-0.05,-0.04,-0.76
3.421,-0.05,-0.04,-0.76
3.423,-0.05,-0.04,-0.76
3.471,0.19,0.33,0.19
3.474,0.19,0.33,0.19
3.476,0.19,0.33,0.19
3.52,-1.45,0.24,0.3
3.534,-1.45,0.24,0.3
3.539,-1.45,0.24,0.3
3.543,-1.45,0.24,0.3
3.597,-0.72,0.17,-0.08
3.6,-0.72,0.17,-0.08
3.602,-0.72,0.17,-0.08
3.642,-1.74,0.7,-0.83
3.658,-1.74,0.7,-0.83
3.661,-1.74,0.7,-0.83
3.697,-0.84,1.56,-0.31
3.724,-0.84,1.56,-0.31
3.726,-0.84,1.56,-0.31
3.729,-0.84,1.56,-0.31
3.765,-3.67,5.39,-0.19
3.779,-3.67,5.39,-0.19
3.784,-3.67,5.39,-0.19
3.822,-3.44,6.63,-0.14
3.834,-3.44,6.63,-0.14
3.836,-3.44,6.63,-0.14
3.875,-2.84,0.73,0.92
3.906,-2.84,0.73,0.92
3.909,-2.84,0.73,0.92
3.911,-2.84,0.73,0.92
3.95,-2.62,-0.8,1.31
3.953,-2.62,-0.8,1.31
3.957,-2.62,-0.8,1.31
4.004,-4.4,-2.32,0.37
4.014,-4.4,-2.32,0.37
4.015,-4.4,-2.32,0.37
4.066,-0.43,-0.11,0.28
4.164,-0.43,-0.11,0.28
4.167,-0.43,-0.11,0.28
4.175,-0.43,-0.11,0.28
4.177,3.56,0.89,0.75
4.18,3.56,0.89,0.75
4.182,3.56,0.89,0.75
4.184,3.36,0.47,0.09
4.193,3.36,0.47,0.09
4.195,3.36,0.47,0.09
4.236,5.14,1.25,1.11
4.294,5.14,1.25,1.11
4.298,5.14,1.25,1.11
4.3,5.14,1.25,1.11
4.303,4.68,0.08,1.44
4.367,4.68,0.08,1.44
4.374,4.68,0.08,1.44
4.375,5.33,-0.34,1.15
4.377,5.33,-0.34,1.15
4.379,5.33,-0.34,1.15
4.432,-1.19,5.52,7.88
4.444,-1.19,5.52,7.88
4.45,-1.19,5.52,7.88
4.457,-1.19,5.52,7.88
4.476,-2.25,-3.78,-2.83
4.505,-2.25,-3.78,-2.83
4.516,-2.25,-3.78,-2.83
4.548,2.54,0.61,2.35
4.554,2.54,0.61,2.35
4.556,2.54,0.61,2.35
4.599,-0.44,0.75,-0.53
4.638,-0.44,0.75,-0.53
4.641,-0.44,0.75,-0.53
4.643,-0.44,0.75,-0.53
4.658,0.1,-0.13,-0.05
4.688,0.1,-0.13,-0.05
4.702,0.1,-0.13,-0.05
4.732,0.01,0.31,-0.07
4.734,0.01,0.31,-0.07
4.736,0.01,0.31,-0.07
4.776,-0.16,0.21,0
4.811,-0.16,0.21,0
4.813,-0.16,0.21,0
4.815,-0.16,0.21,0
4.839,-0.64,0.37,-0.04
4.864,-0.64,0.37,-0.04
4.866,-0.64,0.37,-0.04
4.959,-0.3,0.56,0.07
4.962,-0.3,0.56,0.07
4.965,-0.3,0.56,0.07
4.967,-1.18,0.97,-0.43
4.975,-1.18,0.97,-0.43
4.979,-1.18,0.97,-0.43
4.981,-1.18,0.97,-0.43
5.016,-2.19,1.21,0.91
5.093,-2.19,1.21,0.91
5.096,-2.19,1.21,0.91
5.101,-2.4,6.14,0.39
5.104,-2.4,6.14,0.39
5.108,-2.4,6.14,0.39
5.15,-1.1,3.41,1.94
5.159,-1.1,3.41,1.94
5.16,-1.1,3.41,1.94
5.162,-1.1,3.41,1.94
5.204,0.07,3.01,-1.62
5.235,0.07,3.01,-1.62
5.24,0.07,3.01,-1.62
5.272,-0.31,0.43,-0.64
5.276,-0.31,0.43,-0.64
5.277,-0.31,0.43,-0.64
5.318,-1.8,-2.16,0.87
5.375,-1.8,-2.16,0.87
5.377,-1.8,-2.16,0.87
5.378,-1.8,-2.16,0.87
5.38,-3.53,-2.81,2.6
5.395,-3.53,-2.81,2.6
5.397,-3.53,-2.81,2.6
5.436,-2.44,-0.2,4.19
5.475,-2.44,-0.2,4.19
5.477,-2.44,-0.2,4.19
5.496,3.11,0.67,2.93
5.529,3.11,0.67,2.93
5.532,3.11,0.67,2.93
5.534,3.11,0.67,2.93
5.575,3.86,1.67,2.93
5.578,3.86,1.67,2.93
5.58,3.86,1.67,2.93
5.634,0.8,3.52,-0.38
5.636,0.8,3.52,-0.38
5.646,0.8,3.52,-0.38
5.721,6.82,0.83,1.56
5.723,6.82,0.83,1.56
5.725,6.82,0.83,1.56
5.727,6.82,0.83,1.56
5.742,8.07,-2.21,2.25
5.754,8.07,-2.21,2.25
5.756,8.07,-2.21,2.25
5.849,-10.92,0.9,-0.59
5.852,-10.92,0.9,-0.59
5.854,-10.92,0.9,-0.59
5.857,2.66,-1.58,2.01
5.896,2.66,-1.58,2.01
5.898,2.66,-1.58,2.01
5.9,2.66,-1.58,2.01
5.917,3.75,-0.26,0.97
5.944,3.75,-0.26,0.97
5.947,3.75,-0.26,0.97
5.986,-0.52,0.23,-1.77
5.994,-0.52,0.23,-1.77
5.996,-0.52,0.23,-1.77
6.042,0.67,-0.24,-0.57
6.054,0.67,-0.24,-0.57
6.056,0.67,-0.24,-0.57
6.058,0.67,-0.24,-0.57
6.101,-0.41,-0.08,-1.04
6.115,-0.41,-0.08,-1.04
6.118,-0.41,-0.08,-1.04
6.157,-0.86,-0.11,-0.55
6.2,-0.86,-0.11,-0.55
6.203,-0.86,-0.11,-0.55
6.22,-0.96,0.01,-0.5
6.253,-0.96,0.01,-0.5
6.256,-0.96,0.01,-0.5
6.259,-0.96,0.01,-0.5
6.346,0.14,0.07,-0.24
6.349,0.14,0.07,-0.24
6.352,0.14,0.07,-0.24
6.354,-0.63,0.19,-0.45
6.357,-0.63,0.19,-0.45
6.359,-0.63,0.19,-0.45
6.41,0.04,1.2,-0.69
6.48,0.04,1.2,-0.69
6.483,0.04,1.2,-0.69
6.486,0.04,1.2,-0.69
6.488,-1.29,1.2,0.03
6.49,-1.29,1.2,0.03
6.491,-1.29,1.2,0.03
6.526,-1.36,3.81,-0.05
6.552,-1.36,3.81,-0.05
6.554,-1.36,3.81,-0.05
6.626,-2.85,3.72,1.19
6.634,-2.85,3.72,1.19
6.636,-2.85,3.72,1.19
6.638,-2.85,3.72,1.19
6.639,-1.8,1.77,-2.26
6.665,-1.8,1.77,-2.26
6.668,-1.8,1.77,-2.26
6.735,-0.11,2.53,-1.07
6.738,-0.11,2.53,-1.07
6.74,-0.11,2.53,-1.07
6.759,-4.29,-1.6,-0.46
6.784,-4.29,-1.6,-0.46
6.787,-4.29,-1.6,-0.46
6.79,-4.29,-1.6,-0.46
6.897,-3.15,-1.84,-0.29
6.906,-3.15,-1.84,-0.29
6.908,-3.15,-1.84,-0.29
6.91,-1.03,-0.9,-0.06
6.912,-1.03,-0.9,-0.06
6.915,-1.03,-0.9,-0.06
6.939,2.66,0.45,-0.55
6.995,2.66,0.45,-0.55
7.003,2.66,0.45,-0.55
7.005,2.66,0.45,-0.55
7.007,4.95,1.66,1.09
7.055,4.95,1.66,1.09
7.06,4.95,1.66,1.09
7.062,2.93,1.57,-0.12
7.087,2.93,1.57,-0.12
7.09,2.93,1.57,-0.12
7.173,5.76,1,1.36
7.177,5.76,1,1.36
7.18,5.76,1,1.36
7.185,5.76,1,1.36
7.187,4.42,-0.96,1.39
7.218,4.42,-0.96,1.39
7.221,4.42,-0.96,1.39
7.285,-4.79,8.3,6.51
7.29,-4.79,8.3,6.51
7.292,-4.79,8.3,6.51
7.323,2.15,-5.7,-4.19
7.327,2.15,-5.7,-4.19
7.33,2.15,-5.7,-4.19
7.332,2.15,-5.7,-4.19
7.396,5.71,3.94,1.85
7.403,5.71,3.94,1.85
7.405,5.71,3.94,1.85
7.462,-2.91,-0.96,-2.67
7.467,-2.91,-0.96,-2.67
7.469,-2.91,-0.96,-2.67
7.489,1.1,0.39,-0.11
7.503,1.1,0.39,-0.11
7.504,1.1,0.39,-0.11
7.506,1.1,0.39,-0.11
7.576,-0.55,0.22,-1.05
7.58,-0.55,0.22,-1.05
7.582,-0.55,0.22,-1.05
7.609,0.15,0.17,0.09
7.616,0.15,0.17,0.09
7.618,0.15,0.17,0.09
7.663,-1.52,0.07,-0.79
7.688,-1.52,0.07,-0.79
7.691,-1.52,0.07,-0.79
7.693,-1.52,0.07,-0.79
7.748,0.19,0.59,0.17
7.751,0.19,0.59,0.17
7.753,0.19,0.59,0.17
7.798,0.05,-0.03,-1.39
7.803,0.05,-0.03,-1.39
7.807,0.05,-0.03,-1.39
7.901,-0.61,1.2,0.15
7.906,-0.61,1.2,0.15
7.909,-0.61,1.2,0.15
7.911,-0.61,1.2,0.15
7.913,-0.66,1.71,-0.01
7.917,-0.66,1.71,-0.01
7.919,-0.66,1.71,-0.01
8.014,-2.54,2.83,0.96
8.027,-2.54,2.83,0.96
8.029,-2.54,2.83,0.96
8.031,-3.61,6.5,1.87
8.073,-3.61,6.5,1.87
8.077,-3.61,6.5,1.87
8.079,-3.61,6.5,1.87
8.082,-4.82,3.94,-2.68
8.11,-4.82,3.94,-2.68
8.112,-4.82,3.94,-2.68
8.181,-2.97,3.33,0.73
8.186,-2.97,3.33,0.73
8.189,-2.97,3.33,0.73
8.214,-4.08,-0.98,0.89
8.222,-4.08,-0.98,0.89
8.224,-4.08,-0.98,0.89
8.226,-4.08,-0.98,0.89
8.302,-2.33,-2.32,1.28
8.304,-2.33,-2.32,1.28
8.311,-2.33,-2.32,1.28
8.345,0.82,-0.14,0.73
8.348,0.82,-0.14,0.73
8.35,0.82,-0.14,0.73
8.427,4.3,0.75,-0.92
8.431,4.3,0.75,-0.92
8.433,4.3,0.75,-0.92
8.435,4.3,0.75,-0.92
8.494,7.65,1.84,0.08
8.497,7.65,1.84,0.08
8.5,7.65,1.84,0.08
8.502,6.13,0.15,-0.84
8.527,6.13,0.15,-0.84
8.529,6.13,0.15,-0.84
8.624,5.24,-0.86,-0.58
8.631,5.24,-0.86,-0.58
8.633,5.24,-0.86,-0.58
8.635,5.24,-0.86,-0.58
8.639,0.37,8.41,2.5
8.642,0.37,8.41,2.5
8.644,0.37,8.41,2.5
8.681,0.44,-6.15,-3.17
8.755,0.44,-6.15,-3.17
8.759,0.44,-6.15,-3.17
8.761,4.06,5.11,1.59
8.763,4.06,5.11,1.59
8.765,4.06,5.11,1.59
8.767,4.06,5.11,1.59
8.82,-3.45,-0.76,-1.68
8.826,-3.45,-0.76,-1.68
8.829,-3.45,-0.76,-1.68
8.862,0.61,0.49,0.13
8.959,0.61,0.49,0.13
8.968,0.61,0.49,0.13
8.977,-1.27,0.22,-0.17
8.983,-1.27,0.22,-0.17
8.986,-1.27,0.22,-0.17
8.988,-1.27,0.22,-0.17
8.991,-1.91,0.42,-0.23
8.998,-1.91,0.42,-0.23
9.006,-1.91,0.42,-0.23
9.065,-0.84,0.65,0.53
9.069,-0.84,0.65,0.53
9.072,-0.84,0.65,0.53
9.144,-1.17,0.85,-0.58
9.147,-1.17,0.85,-0.58
9.149,-1.17,0.85,-0.58
9.151,-1.17,0.85,-0.58
9.161,-0.8,0.88,-0.47
9.195,-0.8,0.88,-0.47
9.197,-0.8,0.88,-0.47
9.292,-1.54,2.02,-0.48
9.294,-1.54,2.02,-0.48
9.296,-1.54,2.02,-0.48
9.298,-2.71,3.81,-0.44
9.3,-2.71,3.81,-0.44
9.302,-2.71,3.81,-0.44
9.304,-2.71,3.81,-0.44
9.353,-3.76,5.8,0.73
9.358,-3.76,5.8,0.73
9.359,-3.76,5.8,0.73
9.426,-5.69,3.68,-1.52
9.43,-5.69,3.68,-1.52
9.432,-5.69,3.68,-1.52
9.487,-1.84,4.52,-1.29
9.49,-1.84,4.52,-1.29
9.494,-1.84,4.52,-1.29
9.495,-1.84,4.52,-1.29
9.521,-5.35,1.56,0.32
9.612,-5.35,1.56,0.32
9.615,-5.35,1.56,0.32
9.616,-4.59,-1.48,0.49
9.618,-4.59,-1.48,0.49
9.627,-4.59,-1.48,0.49
9.677,-2.29,-1.35,0.68
9.68,-2.29,-1.35,0.68
9.683,-2.29,-1.35,0.68
9.685,-2.29,-1.35,0.68
9.727,3.29,-0.08,0.21
9.731,3.29,-0.08,0.21
9.734,3.29,-0.08,0.21
9.808,6.51,3.03,0.55
9.814,6.51,3.03,0.55
9.816,6.51,3.03,0.55
9.822,5.85,2.87,1.01
9.845,5.85,2.87,1.01
9.848,5.85,2.87,1.01
9.85,5.85,2.87,1.01
9.923,7.37,-1.44,0.28
9.928,7.37,-1.44,0.28
9.933,7.37,-1.44,0.28
9.957,5.96,-0.74,-0.6
9.961,5.96,-0.74,-0.6
9.963,5.96,-0.74,-0.6
10.032,8.43,2.99,-4.42
10.036,8.43,2.99,-4.42
10.04,8.43,2.99,-4.42
10.042,8.43,2.99,-4.42
10.1,0.7,-0.84,-0.82
10.103,0.7,-0.84,-0.82
10.105,0.7,-0.84,-0.82
10.134,1.35,-0.2,0.13
10.138,1.35,-0.2,0.13
10.14,1.35,-0.2,0.13
10.184,-1.65,-0.12,-1.12
10.222,-1.65,-0.12,-1.12
10.225,-1.65,-0.12,-1.12
10.227,-1.65,-0.12,-1.12
10.315,1.43,0.02,0.5
10.322,1.43,0.02,0.5
10.326,1.43,0.02,0.5
10.33,-2.28,0.42,-0.65
10.332,-2.28,0.42,-0.65
10.333,-2.28,0.42,-0.65
10.362,-0.02,0.48,0.78
10.434,-0.02,0.48,0.78
10.438,-0.02,0.48,0.78
10.44,-0.02,0.48,0.78
10.442,-2.09,0.19,-0.6
10.45,-2.09,0.19,-0.6
10.452,-2.09,0.19,-0.6
10.5,-1.3,0.9,0.03
10.504,-1.3,0.9,0.03
10.507,-1.3,0.9,0.03
10.558,-1.92,2.06,-0.46
10.57,-1.92,2.06,-0.46
10.571,-1.92,2.06,-0.46
10.573,-1.92,2.06,-0.46
10.622,-3.59,6.02,0.98
10.627,-3.59,6.02,0.98
10.628,-3.59,6.02,0.98
10.662,-3.44,5.23,2.18
10.701,-3.44,5.23,2.18
10.703,-3.44,5.23,2.18
10.752,-4.84,3.26,-2.94
10.755,-4.84,3.26,-2.94
10.756,-4.84,3.26,-2.94
10.758,-4.84,3.26,-2.94
10.781,-0.88,1.96,-0.97
10.804,-0.88,1.96,-0.97
10.807,-0.88,1.96,-0.97
10.874,-2.96,-0.77,-0.22
10.881,-2.96,-0.77,-0.22
10.89,-2.96,-0.77,-0.22
10.921,-3.62,-2.79,-0.21
10.923,-3.62,-2.79,-0.21
10.925,-3.62,-2.79,-0.21
10.927,-3.62,-2.79,-0.21
10.968,-1.1,-1.76,0.88
10.981,-1.1,-1.76,0.88
10.983,-1.1,-1.76,0.88
11.024,3.22,1.14,1.15
11.089,3.22,1.14,1.15
11.093,3.22,1.14,1.15
11.096,4.06,2.36,1.67
11.102,4.06,2.36,1.67
11.105,4.06,2.36,1.67
11.107,4.06,2.36,1.67
11.142,5.45,4.5,2.5
11.217,5.45,4.5,2.5
11.222,5.45,4.5,2.5
11.225,6.56,-1.01,1.4
11.226,6.56,-1.01,1.4
11.229,6.56,-1.01,1.4
11.292,6.58,-1.65,0.28
11.294,6.58,-1.65,0.28
11.3,6.58,-1.65,0.28
11.302,6.58,-1.65,0.28
11.336,0.79,0.45,-3.22
11.347,0.79,0.45,-3.22
11.354,0.79,0.45,-3.22
11.413,2.64,-0.24,3.2
11.418,2.64,-0.24,3.2
11.42,2.64,-0.24,3.2
11.444,1.22,0.38,0.18
11.5,1.22,0.38,0.18
11.502,1.22,0.38,0.18
11.504,1.22,0.38,0.18
11.506,-1.14,-0.75,-1.43
11.538,-1.14,-0.75,-1.43
11.541,-1.14,-0.75,-1.43
11.596,0.13,0.4,-0.47
11.599,0.13,0.4,-0.47
11.601,0.13,0.4,-0.47
11.625,-1.06,-0.04,-0.75
11.676,-1.06,-0.04,-0.75
11.678,-1.06,-0.04,-0.75
11.68,-1.06,-0.04,-0.75
11.684,-0.33,0.21,-0.24
11.701,-0.33,0.21,-0.24
11.703,-0.33,0.21,-0.24
11.83,-0.58,-0.05,-0.35
11.832,-0.58,-0.05,-0.35
11.834,-0.58,-0.05,-0.35
11.835,-0.32,0.18,-0.25
11.837,-0.32,0.18,-0.25
11.85,-0.32,0.18,-0.25
11.852,-0.32,0.18,-0.25
11.9,-0.19,0.44,-0.45
11.905,-0.19,0.44,-0.45
11.907,-0.19,0.44,-0.45
11.945,-0.77,0.84,-0.54
11.948,-0.77,0.84,-0.54
11.95,-0.77,0.84,-0.54
12.047,-1.35,1.05,-0.96
12.055,-1.35,1.05,-0.96
12.057,-1.35,1.05,-0.96
12.06,-1.35,1.05,-0.96
12.062,-1.84,2.52,0.39
12.064,-1.84,2.52,0.39
12.066,-1.84,2.52,0.39
12.103,-3.21,3.3,0.7
12.157,-3.21,3.3,0.7
12.16,-3.21,3.3,0.7
12.163,-2.26,3.5,0
12.232,-2.26,3.5,0
12.236,-2.26,3.5,0
12.241,-2.26,3.5,0
12.243,-1.93,0.8,-2.01
12.245,-1.93,0.8,-2.01
12.247,-1.93,0.8,-2.01
12.283,0.09,-0.44,-0.65
12.342,0.09,-0.44,-0.65
12.348,0.09,-0.44,-0.65
12.35,-1.96,-3.26,0.72
12.398,-1.96,-3.26,0.72
12.4,-1.96,-3.26,0.72
12.402,-1.96,-3.26,0.72
12.406,-1.9,-3.17,1.6
12.429,-1.9,-3.17,1.6
12.431,-1.9,-3.17,1.6
12.49,-0.77,-0.35,3.2
12.492,-0.77,-0.35,3.2
12.494,-0.77,-0.35,3.2
12.545,0.87,1.26,2.21
12.55,0.87,1.26,2.21
12.552,0.87,1.26,2.21
12.554,0.87,1.26,2.21
12.629,2.72,1.71,1.53
12.633,2.72,1.71,1.53
12.635,2.72,1.71,1.53
12.661,3.1,2.07,1.15
12.664,3.1,2.07,1.15
12.665,3.1,2.07,1.15
12.734,3.99,0.58,0.63
12.736,3.99,0.58,0.63
12.738,3.99,0.58,0.63
12.742,3.99,0.58,0.63
12.767,6.24,-1.14,-0.39
12.846,6.24,-1.14,-0.39
12.85,6.24,-1.14,-0.39
12.852,-2.08,4.56,-5.56
12.855,-2.08,4.56,-5.56
12.859,-2.08,4.56,-5.56
12.908,-3.94,-1.79,-3.1
12.911,-3.94,-1.79,-3.1
12.913,-3.94,-1.79,-3.1
12.915,-3.94,-1.79,-3.1
12.963,3.39,1.44,-0.49
12.965,3.39,1.44,-0.49
12.968,3.39,1.44,-0.49
13.023,0.67,-0.77,0.08
13.026,0.67,-0.77,0.08
13.029,0.67,-0.77,0.08
13.068,-1.86,-0.31,-2.09
13.204,-1.86,-0.31,-2.09
13.217,-1.86,-0.31,-2.09
13.227,-1.86,-0.31,-2.09
13.233,1.31,0.17,-0.8
13.235,1.31,0.17,-0.8
13.238,1.31,0.17,-0.8
13.241,-0.9,-0.06,-1.15
13.243,-0.9,-0.06,-1.15
13.245,-0.9,-0.06,-1.15
13.247,0.08,-0.12,-0.37
13.279,0.08,-0.12,-0.37
13.288,0.08,-0.12,-0.37
13.292,0.08,-0.12,-0.37
13.328,-0.63,-0.18,-0.54
13.331,-0.63,-0.18,-0.54
13.333,-0.63,-0.18,-0.54
13.395,-0.19,-0.01,-0.49
13.398,-0.19,-0.01,-0.49
13.4,-0.19,-0.01,-0.49
13.454,0.04,0.08,0.06
13.457,0.04,0.08,0.06
13.46,0.04,0.08,0.06
13.461,0.04,0.08,0.06
13.486,-0.14,0.24,-0.52
13.533,-0.14,0.24,-0.52
13.536,-0.14,0.24,-0.52
13.599,-0.69,0.07,-0.72
13.601,-0.69,0.07,-0.72
13.603,-0.69,0.07,-0.72
13.608,-0.74,0.96,-1.25
13.622,-0.74,0.96,-1.25
13.626,-0.74,0.96,-1.25
13.628,-0.74,0.96,-1.25
13.738,-1.17,1.97,0.73
13.741,-1.17,1.97,0.73
13.759,-1.17,1.97,0.73
13.761,-1.76,2.76,0.19
13.763,-1.76,2.76,0.19
13.764,-1.76,2.76,0.19
13.814,-1.56,4.91,1.64
13.82,-1.56,4.91,1.64
13.823,-1.56,4.91,1.64
13.826,-1.56,4.91,1.64
13.868,-2.81,1.63,-2.56
13.881,-2.81,1.63,-2.56
13.882,-2.81,1.63,-2.56
13.958,-0.51,1.67,1.35
13.967,-0.51,1.67,1.35
13.972,-0.51,1.67,1.35
13.977,-2.72,-1.87,2.17
14.004,-2.72,-1.87,2.17
14.006,-2.72,-1.87,2.17
14.008,-2.72,-1.87,2.17
14.09,-3.18,-2.33,1.55
14.102,-3.18,-2.33,1.55
14.109,-3.18,-2.33,1.55
14.111,0.12,-2.12,2.32
14.115,0.12,-2.12,2.32
14.117,0.12,-2.12,2.32
14.145,5.06,1.17,0.47
14.162,5.06,1.17,0.47
14.164,5.06,1.17,0.47
14.165,5.06,1.17,0.47
14.225,5.27,3.49,-0.98
14.233,5.27,3.49,-0.98
14.239,5.27,3.49,-0.98
14.283,6.54,-0.08,-0.89
14.285,6.54,-0.08,-0.89
14.287,6.54,-0.08,-0.89
14.328,6.05,-1.31,-1.05
14.347,6.05,-1.31,-1.05
14.35,6.05,-1.31,-1.05
14.352,6.05,-1.31,-1.05
14.406,-0.44,7.22,-3.38
14.413,-0.44,7.22,-3.38
14.414,-0.44,7.22,-3.38
14.455,2.26,-0.46,-1.85
14.464,2.26,-0.46,-1.85
14.466,2.26,-0.46,-1.85
14.543,0.54,0.43,-1.11
14.551,0.54,0.43,-1.11
14.553,0.54,0.43,-1.11
14.554,0.54,0.43,-1.11
14.599,0.59,0.1,-0.35
14.602,0.59,0.1,-0.35
14.603,0.59,0.1,-0.35
14.627,-1.02,-0.26,-1.21
14.663,-1.02,-0.26,-1.21
14.672,-1.02,-0.26,-1.21
14.741,1.73,0.29,0.47
14.744,1.73,0.29,0.47
14.746,1.73,0.29,0.47
14.75,1.73,0.29,0.47
14.752,-1.18,0.06,-0.56
14.764,-1.18,0.06,-0.56
14.767,-1.18,0.06,-0.56
14.875,-0.56,-0.06,-0.11
14.882,-0.56,-0.06,-0.11
14.884,-0.56,-0.06,-0.11
14.887,-1.13,-0.22,-0.52
14.89,-1.13,-0.22,-0.52
14.892,-1.13,-0.22,-0.52
14.899,-1.13,-0.22,-0.52
14.95,-0.03,0.34,-0.04
14.953,-0.03,0.34,-0.04
14.955,-0.03,0.34,-0.04
15,0.3,0.34,-0.38
15.005,0.3,0.34,-0.38
15.007,0.3,0.34,-0.38
15.073,-0.24,0.36,-0.9
15.083,-0.24,0.36,-0.9
15.085,-0.24,0.36,-0.9
15.087,-0.24,0.36,-0.9
15.118,0.2,0.84,-0.32
15.124,0.2,0.84,-0.32
15.126,0.2,0.84,-0.32
15.229,-1.11,2.97,-1
15.232,-1.11,2.97,-1
15.234,-1.11,2.97,-1
15.239,-3.14,4.42,0.08
15.267,-3.14,4.42,0.08
15.27,-3.14,4.42,0.08
15.271,-3.14,4.42,0.08
15.325,-4.92,5.1,0.53
15.327,-4.92,5.1,0.53
15.329,-4.92,5.1,0.53
15.376,-6.16,4.28,-3.73
15.381,-6.16,4.28,-3.73
15.383,-6.16,4.28,-3.73
15.418,-4.25,1.78,-0.58
15.427,-4.25,1.78,-0.58
15.429,-4.25,1.78,-0.58
15.431,-4.25,1.78,-0.58
15.519,-4.25,-2.6,-0.21
15.532,-4.25,-2.6,-0.21
15.536,-4.25,-2.6,-0.21
15.541,-1.58,-3.31,-0.44
15.567,-1.58,-3.31,-0.44
15.57,-1.58,-3.31,-0.44
15.664,2.9,0.14,-0.9
15.667,2.9,0.14,-0.9
15.669,2.9,0.14,-0.9
15.673,2.9,0.14,-0.9
15.675,6.95,3.45,-1.96
15.693,6.95,3.45,-1.96
15.694,6.95,3.45,-1.96
15.743,10.56,2.02,-1.42
15.748,10.56,2.02,-1.42
15.751,10.56,2.02,-1.42
15.78,7.44,-1.29,-1.22
15.784,7.44,-1.29,-1.22
15.786,7.44,-1.29,-1.22
15.787,7.44,-1.29,-1.22
15.877,6.96,2.54,-5.6
15.884,6.96,2.54,-5.6
15.887,6.96,2.54,-5.6
15.89,4.68,-0.67,-4.11
15.945,4.68,-0.67,-4.11
15.948,4.68,-0.67,-4.11
15.95,1.15,0.03,-1.75
15.976,1.15,0.03,-1.75
15.979,1.15,0.03,-1.75
15.981,1.15,0.03,-1.75
16.034,-0.81,-1.6,-0.73
16.037,-0.81,-1.6,-0.73
16.039,-0.81,-1.6,-0.73
16.079,-0.05,0.49,-0.4
16.084,-0.05,0.49,-0.4
16.086,-0.05,0.49,-0.4
16.126,1.17,-0.07,0.38
16.165,1.17,-0.07,0.38
16.169,1.17,-0.07,0.38
16.176,1.17,-0.07,0.38
16.228,-1.11,0.12,-0.62
16.234,-1.11,0.12,-0.62
16.236,-1.11,0.12,-0.62
16.248,-0.17,0.25,0.15
16.276,-0.17,0.25,0.15
16.279,-0.17,0.25,0.15
16.364,-0.94,0.26,0.43
16.37,-0.94,0.26,0.43
16.374,-0.94,0.26,0.43
16.375,-0.94,0.26,0.43
16.377,0.04,0.55,-0.21
16.385,0.04,0.55,-0.21
16.387,0.04,0.55,-0.21
16.429,-0.97,1.85,0.35
16.476,-0.97,1.85,0.35
16.479,-0.97,1.85,0.35
16.487,-1.18,1.5,-0.69
16.544,-1.18,1.5,-0.69
16.546,-1.18,1.5,-0.69
16.549,-1.18,1.5,-0.69
16.55,-2.38,3.71,0.29
16.565,-2.38,3.71,0.29
16.567,-2.38,3.71,0.29
16.607,-3.89,4.86,0.91
16.673,-3.89,4.86,0.91
16.677,-3.89,4.86,0.91
16.68,-4.85,3.23,-1.38
16.685,-4.85,3.23,-1.38
16.687,-4.85,3.23,-1.38
16.69,-4.85,3.23,-1.38
16.739,-2.87,2.76,-1.69
16.804,-2.87,2.76,-1.69
16.809,-2.87,2.76,-1.69
16.811,-2.29,0.77,-0.25
16.814,-2.29,0.77,-0.25
16.817,-2.29,0.77,-0.25
16.855,-2.3,-1.77,1.54
16.927,-2.3,-1.77,1.54
16.931,-2.3,-1.77,1.54
16.932,-2.3,-1.77,1.54
16.934,-2.19,-3.16,1.27
16.936,-2.19,-3.16,1.27
16.937,-2.19,-3.16,1.27
16.988,-0.06,-1.17,0.98
16.991,-0.06,-1.17,0.98
16.993,-0.06,-1.17,0.98
17.039,4.92,2,-0.63
17.049,4.92,2,-0.63
17.05,4.92,2,-0.63
17.059,4.92,2,-0.63
17.095,5.24,4.74,-1.2
17.105,5.24,4.74,-1.2
17.107,5.24,4.74,-1.2
17.149,9.52,0,-2.1
17.217,9.52,0,-2.1
17.228,9.52,0,-2.1
17.229,7.43,-2.91,-2.88
17.241,7.43,-2.91,-2.88
17.243,7.43,-2.91,-2.88
17.248,7.43,-2.91,-2.88
17.268,-10.14,11.85,14.42
17.302,-10.14,11.85,14.42
17.312,-10.14,11.85,14.42
17.378,6.86,-0.52,2.89
17.381,6.86,-0.52,2.89
17.384,6.86,-0.52,2.89
17.389,1.27,-0.82,-2.85
17.408,1.27,-0.82,-2.85
17.412,1.27,-0.82,-2.85
17.413,1.27,-0.82,-2.85
17.448,-2.73,1.42,-0.43
17.514,-2.73,1.42,-0.43
17.52,-2.73,1.42,-0.43
17.522,0.38,0.24,0.22
17.525,0.38,0.24,0.22
17.536,0.38,0.24,0.22
17.576,-0.86,0.25,-0.3
17.585,-0.86,0.25,-0.3
17.587,-0.86,0.25,-0.3
17.59,-0.86,0.25,-0.3
17.631,-0.89,0.18,-0.05
17.707,-0.89,0.18,-0.05
17.71,-0.89,0.18,-0.05
17.715,-1.42,-0.11,-0.52
17.718,-1.42,-0.11,-0.52
17.72,-1.42,-0.11,-0.52
17.75,-0.63,-0.09,0.21
17.839,-0.63,-0.09,0.21
17.841,-0.63,-0.09,0.21
17.843,-0.63,-0.09,0.21
17.851,-0.51,0.37,0.03
17.853,-0.51,0.37,0.03
17.855,-0.51,0.37,0.03
17.879,-0.9,0.48,-0.03
17.888,-0.9,0.48,-0.03
17.898,-0.9,0.48,-0.03
17.93,-0.98,0.79,-0.17
17.959,-0.98,0.79,-0.17
17.961,-0.98,0.79,-0.17
17.964,-0.98,0.79,-0.17
18.018,-0.85,1.96,0.09
18.022,-0.85,1.96,0.09
18.023,-0.85,1.96,0.09
18.058,-1.45,4.12,0.61
18.136,-1.45,4.12,0.61
18.138,-1.45,4.12,0.61
18.141,-4.57,4.33,0.71
18.142,-4.57,4.33,0.71
18.144,-4.57,4.33,0.71
18.146,-4.57,4.33,0.71
18.175,-1.68,2.65,-3.72
18.223,-1.68,2.65,-3.72
18.225,-1.68,2.65,-3.72
18.253,-2.59,0.85,-2.96
18.256,-2.59,0.85,-2.96
18.258,-2.59,0.85,-2.96
18.34,-1.82,-1.26,-1.25
18.343,-1.82,-1.26,-1.25
18.346,-1.82,-1.26,-1.25
18.351,-1.82,-1.26,-1.25
18.353,-3.1,-2.49,-1.66
18.375,-3.1,-2.49,-1.66
18.377,-3.1,-2.49,-1.66
18.448,-1.71,-2.15,-2.67
18.453,-1.71,-2.15,-2.67
18.457,-1.71,-2.15,-2.67
18.489,0.62,-0.98,-2.58
18.492,0.62,-0.98,-2.58
18.494,0.62,-0.98,-2.58
18.495,0.62,-0.98,-2.58
18.559,1.36,0.22,-3.67
18.565,1.36,0.22,-3.67
18.567,1.36,0.22,-3.67
18.6,4.66,1.42,-3.49
18.606,4.66,1.42,-3.49
18.607,4.66,1.42,-3.49
18.673,4.66,0.71,-2.43
18.676,4.66,0.71,-2.43
18.678,4.66,0.71,-2.43
18.68,4.66,0.71,-2.43
18.736,4.45,0.18,-2.85
18.738,4.45,0.18,-2.85
18.74,4.45,0.18,-2.85
18.782,7.26,-2.03,-2.52
18.786,7.26,-2.03,-2.52
18.788,7.26,-2.03,-2.52
18.863,7.44,-1.66,-4.99
18.866,7.44,-1.66,-4.99
18.87,7.44,-1.66,-4.99
18.872,7.44,-1.66,-4.99
18.9,6.89,2.43,-5.5
18.906,6.89,2.43,-5.5
18.908,6.89,2.43,-5.5
18.968,-1.1,-0.81,-0.84
18.973,-1.1,-0.81,-0.84
18.975,-1.1,-0.81,-0.84
19.021,2.69,0.25,0.82
19.029,2.69,0.25,0.82
19.031,2.69,0.25,0.82
19.033,2.69,0.25,0.82
19.133,-0.78,-0.09,-0.67
19.136,-0.78,-0.09,-0.67
19.138,-0.78,-0.09,-0.67
19.14,1.1,0.07,0.48
19.146,1.1,0.07,0.48
19.148,1.1,0.07,0.48
19.207,-0.02,0.13,0
19.211,-0.02,0.13,0
19.223,-0.02,0.13,0
19.228,-0.02,0.13,0
19.253,-0.12,0.13,-0.35
19.294,-0.12,0.13,-0.35
19.301,-0.12,0.13,-0.35
19.399,0.44,0.29,-0.08
19.404,0.44,0.29,-0.08
19.407,0.44,0.29,-0.08
19.41,-0.1,0.19,0.36
19.413,-0.1,0.19,0.36
19.416,-0.1,0.19,0.36
19.42,-0.1,0.19,0.36
19.449,0.61,0.16,0.04
19.454,0.61,0.16,0.04
19.456,0.61,0.16,0.04
19.509,0.5,0.36,0.12
19.513,0.5,0.36,0.12
19.515,0.5,0.36,0.12
19.565,-0.04,0.54,-0.18
19.571,-0.04,0.54,-0.18
19.573,-0.04,0.54,-0.18
19.574,-0.04,0.54,-0.18
19.653,-0.02,1.4,-0.25
19.656,-0.02,1.4,-0.25
19.658,-0.02,1.4,-0.25
19.716,-1.22,1.15,-0.88
19.722,-1.22,1.15,-0.88
19.724,-1.22,1.15,-0.88
19.733,-1.23,0.79,-0.6
19.767,-1.23,0.79,-0.6
19.772,-1.23,0.79,-0.6
19.774,-1.23,0.79,-0.6
19.856,-2.31,2.69,-0.94
19.861,-2.31,2.69,-0.94
19.863,-2.31,2.69,-0.94
19.865,-2.07,2.47,-1.69
19.867,-2.07,2.47,-1.69
19.875,-2.07,2.47,-1.69
19.978,-2.84,3.3,-3.55
19.984,-2.84,3.3,-3.55
19.989,-2.84,3.3,-3.55
19.991,-2.84,3.3,-3.55
19.992,-1.95,-0.11,-1.43
19.994,-1.95,-0.11,-1.43
19.996,-1.95,-0.11,-1.43
20.032,-4.49,-1.81,-0.75
20.072,-4.49,-1.81,-0.75
20.075,-4.49,-1.81,-0.75
20.133,-1.24,-2.49,0.08
20.135,-1.24,-2.49,0.08
20.139,-1.24,-2.49,0.08
20.141,-1.24,-2.49,0.08
20.167,1.42,-0.87,0.38
20.171,1.42,-0.87,0.38
20.173,1.42,-0.87,0.38
20.27,3.83,1.66,-1.64
20.273,3.83,1.66,-1.64
20.28,3.83,1.66,-1.64
20.282,6.29,3.03,-1.47
20.292,6.29,3.03,-1.47
20.295,6.29,3.03,-1.47
20.297,6.29,3.03,-1.47
20.332,7.16,1.07,-2.72
20.404,7.16,1.07,-2.72
20.411,7.16,1.07,-2.72
20.413,7.53,-2.13,-2.12
20.415,7.53,-2.13,-2.12
20.417,7.53,-2.13,-2.12
20.471,5.28,0.16,-5.2
20.491,5.28,0.16,-5.2
20.493,5.28,0.16,-5.2
20.496,5.28,0.16,-5.2
20.556,8.8,4.37,-0.24
20.56,8.8,4.37,-0.24
20.562,8.8,4.37,-0.24
20.6,-1.65,3.58,-3.33
20.603,-1.65,3.58,-3.33
20.605,-1.65,3.58,-3.33
20.677,3.68,-2.1,0.94
20.68,3.68,-2.1,0.94
20.681,3.68,-2.1,0.94
20.683,3.68,-2.1,0.94
20.726,-3.78,1.13,-0.47
20.73,-3.78,1.13,-0.47
20.732,-3.78,1.13,-0.47
20.8,2.15,0.44,1.63
20.803,2.15,0.44,1.63
20.805,2.15,0.44,1.63
20.861,-0.95,-0.06,-0.28
20.864,-0.95,-0.06,-0.28
20.866,-0.95,-0.06,-0.28
20.867,-0.95,-0.06,-0.28
20.872,0,0.36,0.25
20.899,0,0.36,0.25
20.901,0,0.36,0.25
20.967,0.05,0.25,0.36
20.97,0.05,0.25,0.36
20.973,0.05,0.25,0.36
20.999,-0.43,0.08,-0.06
21.075,-0.43,0.08,-0.06
21.078,-0.43,0.08,-0.06
21.081,-0.43,0.08,-0.06
21.082,0.15,0.32,0.32
21.084,0.15,0.32,0.32
21.086,0.15,0.32,0.32
21.115,-0.01,0.12,0.06
21.208,-0.01,0.12,0.06
21.211,-0.01,0.12,0.06
21.213,-0.2,0.17,-0.1
21.215,-0.2,0.17,-0.1
21.217,-0.2,0.17,-0.1
21.233,-0.2,0.17,-0.1
21.234,-0.17,0.08,-0.08
21.273,-0.17,0.08,-0.08
21.277,-0.17,0.08,-0.08
21.3,-0.29,0.27,-0.17
21.309,-0.29,0.27,-0.17
21.31,-0.29,0.27,-0.17
21.364,0.55,0.64,0.1
21.371,0.55,0.64,0.1
21.374,0.55,0.64,0.1
21.376,0.55,0.64,0.1
21.487,0.03,0.1,0.11
21.502,0.03,0.1,0.11
21.507,0.03,0.1,0.11
21.514,-0.32,-0.32,-0.3
21.519,-0.32,-0.32,-0.3
21.525,-0.32,-0.32,-0.3
21.551,-0.33,0.07,-0.16
21.554,-0.33,0.07,-0.16
21.556,-0.33,0.07,-0.16
21.557,-0.33,0.07,-0.16
21.593,0.27,0.05,-0.23
21.692,0.27,0.05,-0.23
21.701,0.27,0.05,-0.23
21.703,-0.07,-0.05,-0.16
21.705,-0.07,-0.05,-0.16
21.707,-0.07,-0.05,-0.16
21.715,0.1,0.22,-0.14
21.759,0.1,0.22,-0.14
21.763,0.1,0.22,-0.14
21.765,0.1,0.22,-0.14
21.786,0.02,0.13,-0.08
21.789,0.02,0.13,-0.08
21.791,0.02,0.13,-0.08
21.882,-0.1,0.07,0.03
21.886,-0.1,0.07,0.03
21.889,-0.1,0.07,0.03
21.893,0.1,0.09,-0.05
21.916,0.1,0.09,-0.05
21.919,0.1,0.09,-0.05
21.921,0.1,0.09,-0.05
21.973,-0.2,-0.03,-0.05
21.976,-0.2,-0.03,-0.05
21.978,-0.2,-0.03,-0.05
22.031,-0.7,1.43,0.31
22.035,-0.7,1.43,0.31
22.038,-0.7,1.43,0.31
22.099,-1.61,1.39,-0.44
22.104,-1.61,1.39,-0.44
22.106,-1.61,1.39,-0.44
22.109,-1.61,1.39,-0.44
22.187,-0.61,0.29,-0.83
22.192,-0.61,0.29,-0.83
22.194,-0.61,0.29,-0.83
22.195,0.18,0.2,-0.32
22.227,0.18,0.2,-0.32
22.23,0.18,0.2,-0.32
22.295,0.67,-0.97,-0.89
22.305,0.67,-0.97,-0.89
22.309,0.67,-0.97,-0.89
22.311,0.67,-0.97,-0.89
22.314,1.26,-1.88,-0.89
22.348,1.26,-1.88,-0.89
22.35,1.26,-1.88,-0.89
22.395,-0.49,-0.18,0.18
22.402,-0.49,-0.18,0.18
22.403,-0.49,-0.18,0.18
22.469,-1.09,0.3,0.74
22.473,-1.09,0.3,0.74
22.475,-1.09,0.3,0.74
22.478,-1.09,0.3,0.74
22.508,-0.21,0.02,0.27
22.512,-0.21,0.02,0.27
22.514,-0.21,0.02,0.27
22.585,0.1,0.41,-0.46
22.593,0.1,0.41,-0.46
22.597,0.1,0.41,-0.46
22.626,-0.18,-0.38,-0.29
22.63,-0.18,-0.38,-0.29
22.634,-0.18,-0.38,-0.29
22.635,-0.18,-0.38,-0.29
22.703,-0.43,0.52,-0.12
22.711,-0.43,0.52,-0.12
22.712,-0.43,0.52,-0.12
22.757,-0.02,-0.12,0.6
22.759,-0.02,-0.12,0.6
22.761,-0.02,-0.12,0.6
22.799,-0.48,0.16,-0.27
22.867,-0.48,0.16,-0.27
22.872,-0.48,0.16,-0.27
22.873,-0.48,0.16,-0.27
22.875,0.1,0.06,-0.13
22.877,0.1,0.06,-0.13
22.879,0.1,0.06,-0.13
22.939,-0.06,0.81,-0.16
22.942,-0.06,0.81,-0.16
22.944,-0.06,0.81,-0.16
22.999,-0.05,-0.15,-0.11
23.003,-0.05,-0.15,-0.11
23.005,-0.05,-0.15,-0.11
23.007,-0.05,-0.15,-0.11
23.125,0.29,-0.23,0.28
23.131,0.29,-0.23,0.28
23.139,0.29,-0.23,0.28
23.143,-0.3,0.13,0.03
23.147,-0.3,0.13,0.03
23.154,-0.3,0.13,0.03
23.158,0.24,0.25,-0.19
23.187,0.24,0.25,-0.19
23.19,0.24,0.25,-0.19
23.192,0.24,0.25,-0.19
23.263,-0.07,0.03,-0.2
23.266,-0.07,0.03,-0.2
23.275,-0.07,0.03,-0.2
23.277,-0.01,-0.1,0.01
23.321,-0.01,-0.1,0.01
23.324,-0.01,-0.1,0.01
23.336,-0.04,0.02,-0.04
23.364,-0.04,0.02,-0.04
23.372,-0.04,0.02,-0.04
23.374,-0.04,0.02,-0.04
23.432,-0.03,0.24,-0.11
23.448,-0.03,0.24,-0.11
23.45,-0.03,0.24,-0.11
23.489,0.07,0.25,0.03
23.492,0.07,0.25,0.03
23.493,0.07,0.25,0.03
23.522,-0.12,-0.16,0.12
23.531,-0.12,-0.16,0.12
23.533,-0.12,-0.16,0.12
23.535,-0.12,-0.16,0.12
23.576,0.23,0.1,-0.24
23.607,0.23,0.1,-0.24
23.61,0.23,0.1,-0.24
23.685,0.09,0.08,0.13
23.689,0.09,0.08,0.13
23.691,0.09,0.08,0.13
23.696,-0.14,-0.06,-0.17
23.734,-0.14,-0.06,-0.17
23.736,-0.14,-0.06,-0.17
23.74,-0.14,-0.06,-0.17
23.788,0.04,0.04,-0.07
23.79,0.04,0.04,-0.07
23.791,0.04,0.04,-0.07
23.828,-0.04,0.21,-0.06
23.83,-0.04,0.21,-0.06
23.832,-0.04,0.21,-0.06
23.899,-0.02,0.04,-0.05
23.901,-0.02,0.04,-0.05
23.903,-0.02,0.04,-0.05
23.91,-0.02,0.04,-0.05
23.942,0.01,0.25,-0.19
23.952,0.01,0.25,-0.19
23.955,0.01,0.25,-0.19
24,0.02,-0.02,-0.1
24.046,0.02,-0.02,-0.1
24.049,0.02,-0.02,-0.1
24.059,0.17,-0.19,-0.01
24.09,0.17,-0.19,-0.01
24.093,0.17,-0.19,-0.01
24.095,0.17,-0.19,-0.01
24.162,0.1,0.34,0.03
24.164,0.1,0.34,0.03
24.166,0.1,0.34,0.03
24.175,0.07,0.04,0.04
24.224,0.07,0.04,0.04
24.227,0.07,0.04,0.04
24.237,0.17,-0.34,-0.06
24.315,0.17,-0.34,-0.06
24.318,0.17,-0.34,-0.06
24.321,0.17,-0.34,-0.06
24.324,0,0.03,-0.2
24.33,0,0.03,-0.2
24.332,0,0.03,-0.2
24.36,0.05,0.06,-0.07
24.373,0.05,0.06,-0.07
24.375,0.05,0.06,-0.07
24.433,-0.07,0.22,0.24
24.435,-0.07,0.22,0.24
24.437,-0.07,0.22,0.24
24.44,-0.07,0.22,0.24
24.495,-0.03,0,0.05
24.502,-0.03,0,0.05
24.507,-0.03,0,0.05
24.535,0.05,-0.07,-0.09
24.6,0.05,-0.07,-0.09
24.603,0.05,-0.07,-0.09
24.605,-0.05,0.17,0
24.68,-0.05,0.17,0
24.684,-0.05,0.17,0
24.686,-0.05,0.17,0
24.687,-0.02,0.29,-0.01
24.69,-0.02,0.29,-0.01
24.692,-0.02,0.29,-0.01
24.751,-0.04,-0.23,-0.1
24.754,-0.04,-0.23,-0.1
24.756,-0.04,-0.23,-0.1
24.819,0.21,-0.28,0.05
24.827,0.21,-0.28,0.05
24.831,0.21,-0.28,0.05
24.834,0.21,-0.28,0.05
24.837,0,0.34,0.24
24.88,0,0.34,0.24
24.883,0,0.34,0.24
24.964,0,0.27,0
24.971,0,0.27,0
24.981,0,0.27,0
24.986,0.03,0.03,-0.2
24.99,0.03,0.03,-0.2
24.992,0.03,0.03,-0.2
24.994,0.03,0.03,-0.2
25.026,0.05,-0.03,0.05
25.034,0.05,-0.03,0.05
25.036,0.05,-0.03,0.05
25.076,0.05,0.05,0.18
25.142,0.05,0.05,0.18
25.146,0.05,0.05,0.18
25.151,0.03,0.05,-0.01
25.153,0.03,0.05,-0.01
25.155,0.03,0.05,-0.01
25.157,0.03,0.05,-0.01
25.202,0.13,0.23,-0.41
25.239,0.13,0.23,-0.41
25.241,0.13,0.23,-0.41
25.274,-0.01,-0.02,0.17
25.277,-0.01,-0.02,0.17
25.282,-0.01,-0.02,0.17
